#
# Results on Tuesday December 06 2016 21:51:33 UTC.
# USER AGENT: Mozilla/5.0 (Macintosh; Intel Mac OS X 10.12; rv:50.0) Gecko/20100101 Firefox/50.0
# Design number was non-random = 0
#
# Columns below this comment are as follows:
# 1. Time results were received.
# 2. MD5 hash of participant's IP address.
# 3. Controller name.
# 4. Item number.
# 5. Element number.
# 6. Type.
# 7. Group.
# 8. Field name.
# 9. Field value.
1481061094,4b7185e561a8f3d348402251f27304dd,Form,1,0,instructions,NULL,,no
1481061094,4b7185e561a8f3d348402251f27304dd,Form,1,0,instructions,NULL,,no
1481061094,4b7185e561a8f3d348402251f27304dd,Form,1,0,instructions,NULL,,no
1481061094,4b7185e561a8f3d348402251f27304dd,Form,1,0,instructions,NULL,,no
1481061094,4b7185e561a8f3d348402251f27304dd,Form,1,0,instructions,NULL,,no
1481061094,4b7185e561a8f3d348402251f27304dd,Form,1,0,instructions,NULL,,no
1481061094,4b7185e561a8f3d348402251f27304dd,Form,1,0,instructions,NULL,,no
1481061094,4b7185e561a8f3d348402251f27304dd,Form,1,0,instructions,NULL,,no
1481061094,4b7185e561a8f3d348402251f27304dd,Form,1,0,instructions,NULL,,no
1481061094,4b7185e561a8f3d348402251f27304dd,Form,1,0,instructions,NULL,,no
1481061094,4b7185e561a8f3d348402251f27304dd,Form,1,0,instructions,NULL,,no
1481061094,4b7185e561a8f3d348402251f27304dd,Form,1,0,instructions,NULL,,no
1481061094,4b7185e561a8f3d348402251f27304dd,Form,1,0,instructions,NULL,_REACTION_TIME_,8969
1481061094,4b7185e561a8f3d348402251f27304dd,Form2,4,0,training1,NULL,,no
1481061094,4b7185e561a8f3d348402251f27304dd,Form2,4,0,training1,NULL,,no
1481061094,4b7185e561a8f3d348402251f27304dd,Form2,4,0,training1,NULL,,no
1481061094,4b7185e561a8f3d348402251f27304dd,Form2,4,0,training1,NULL,_REACTION_TIME_,1383
1481061094,4b7185e561a8f3d348402251f27304dd,Form2,5,0,training2,NULL,,yes
1481061094,4b7185e561a8f3d348402251f27304dd,Form2,5,0,training2,NULL,,no
1481061094,4b7185e561a8f3d348402251f27304dd,Form2,5,0,training2,NULL,,no
1481061094,4b7185e561a8f3d348402251f27304dd,Form2,5,0,training2,NULL,_REACTION_TIME_,2968
1481061094,4b7185e561a8f3d348402251f27304dd,Form2,6,0,training3,NULL,,no
1481061094,4b7185e561a8f3d348402251f27304dd,Form2,6,0,training3,NULL,,no
1481061094,4b7185e561a8f3d348402251f27304dd,Form2,6,0,training3,NULL,,yes
1481061094,4b7185e561a8f3d348402251f27304dd,Form2,6,0,training3,NULL,_REACTION_TIME_,3127
1481061094,4b7185e561a8f3d348402251f27304dd,Form2,7,0,training4,NULL,,yes
1481061094,4b7185e561a8f3d348402251f27304dd,Form2,7,0,training4,NULL,,no
1481061094,4b7185e561a8f3d348402251f27304dd,Form2,7,0,training4,NULL,,no
1481061094,4b7185e561a8f3d348402251f27304dd,Form2,7,0,training4,NULL,_REACTION_TIME_,9800
1481061094,4b7185e561a8f3d348402251f27304dd,Form2,8,0,training5,NULL,,no
1481061094,4b7185e561a8f3d348402251f27304dd,Form2,8,0,training5,NULL,,yes
1481061094,4b7185e561a8f3d348402251f27304dd,Form2,8,0,training5,NULL,,no
1481061094,4b7185e561a8f3d348402251f27304dd,Form2,8,0,training5,NULL,_REACTION_TIME_,29067
1481061094,4b7185e561a8f3d348402251f27304dd,Form2,65,0,ppf16,NULL,amy_item=TrueTrueFalseFiller_role=trueSE,no
1481061094,4b7185e561a8f3d348402251f27304dd,Form2,65,0,ppf16,NULL,bob_item=TrueTrueFalseFiller_role=false,no
1481061094,4b7185e561a8f3d348402251f27304dd,Form2,65,0,ppf16,NULL,chris_item=TrueTrueFalseFiller_role=truePerfect,no
1481061094,4b7185e561a8f3d348402251f27304dd,Form2,65,0,ppf16,NULL,_REACTION_TIME_,13174
1481061094,4b7185e561a8f3d348402251f27304dd,Form2,85,0,lose1,NULL,amy_item=winFiller_role=UDtarget,no
1481061094,4b7185e561a8f3d348402251f27304dd,Form2,85,0,lose1,NULL,bob_item=winFiller_role=falsecontrolSE,no
1481061094,4b7185e561a8f3d348402251f27304dd,Form2,85,0,lose1,NULL,chris_item=winFiller_role=truecontrol,yes
1481061094,4b7185e561a8f3d348402251f27304dd,Form2,85,0,lose1,NULL,_REACTION_TIME_,2160
1481061094,4b7185e561a8f3d348402251f27304dd,Form2,41,0,ua2,NULL,amy_item=UA_role=target,no
1481061094,4b7185e561a8f3d348402251f27304dd,Form2,41,0,ua2,NULL,bob_item=UA_role=truecontrolSE,no
1481061094,4b7185e561a8f3d348402251f27304dd,Form2,41,0,ua2,NULL,chris_item=UA_role=falsecontrol,no
1481061094,4b7185e561a8f3d348402251f27304dd,Form2,41,0,ua2,NULL,_REACTION_TIME_,1291
1481061094,4b7185e561a8f3d348402251f27304dd,Form2,67,0,ppf18,NULL,amy_item=TrueTrueFalseFiller_role=false,no
1481061094,4b7185e561a8f3d348402251f27304dd,Form2,67,0,ppf18,NULL,bob_item=TrueTrueFalseFiller_role=trueSE,no
1481061094,4b7185e561a8f3d348402251f27304dd,Form2,67,0,ppf18,NULL,chris_item=TrueTrueFalseFiller_role=truePerfect,yes
1481061094,4b7185e561a8f3d348402251f27304dd,Form2,67,0,ppf18,NULL,_REACTION_TIME_,1579
1481061094,4b7185e561a8f3d348402251f27304dd,Form2,19,0,oa0,NULL,amy_item=OA_role=target,yes
1481061094,4b7185e561a8f3d348402251f27304dd,Form2,19,0,oa0,NULL,bob_item=OA_role=falsecontrol,no
1481061094,4b7185e561a8f3d348402251f27304dd,Form2,19,0,oa0,NULL,chris_item=OA_role=truecontrolSE,no
1481061094,4b7185e561a8f3d348402251f27304dd,Form2,19,0,oa0,NULL,_REACTION_TIME_,5380
1481061094,4b7185e561a8f3d348402251f27304dd,Form2,76,0,sym7,NULL,amy_item=whichSymbolFiller_role=UDtargetTrue,no
1481061094,4b7185e561a8f3d348402251f27304dd,Form2,76,0,sym7,NULL,bob_item=whichSymbolFiller_role=truecontrolSE,yes
1481061094,4b7185e561a8f3d348402251f27304dd,Form2,76,0,sym7,NULL,chris_item=whichSymbolFiller_role=falsecontrol,no
1481061094,4b7185e561a8f3d348402251f27304dd,Form2,76,0,sym7,NULL,_REACTION_TIME_,4117
1481061094,4b7185e561a8f3d348402251f27304dd,Form2,72,0,sym3,NULL,amy_item=whichSymbolFiller_role=falsecontrol,no
1481061094,4b7185e561a8f3d348402251f27304dd,Form2,72,0,sym3,NULL,bob_item=whichSymbolFiller_role=truecontrolSE,no
1481061094,4b7185e561a8f3d348402251f27304dd,Form2,72,0,sym3,NULL,chris_item=whichSymbolFiller_role=UDtargetTrue,yes
1481061094,4b7185e561a8f3d348402251f27304dd,Form2,72,0,sym3,NULL,_REACTION_TIME_,2657
1481061094,4b7185e561a8f3d348402251f27304dd,Form2,87,0,lose3,NULL,amy_item=winFiller_role=UDtarget,no
1481061094,4b7185e561a8f3d348402251f27304dd,Form2,87,0,lose3,NULL,bob_item=winFiller_role=falsecontrolSE,yes
1481061094,4b7185e561a8f3d348402251f27304dd,Form2,87,0,lose3,NULL,chris_item=winFiller_role=truecontrol,no
1481061094,4b7185e561a8f3d348402251f27304dd,Form2,87,0,lose3,NULL,_REACTION_TIME_,1870
1481061094,4b7185e561a8f3d348402251f27304dd,Form2,23,0,oa4,NULL,amy_item=OA_role=falsecontrol,yes
1481061094,4b7185e561a8f3d348402251f27304dd,Form2,23,0,oa4,NULL,bob_item=OA_role=truecontrolSE,no
1481061094,4b7185e561a8f3d348402251f27304dd,Form2,23,0,oa4,NULL,chris_item=OA_role=target,no
1481061094,4b7185e561a8f3d348402251f27304dd,Form2,23,0,oa4,NULL,_REACTION_TIME_,3411
1481061094,4b7185e561a8f3d348402251f27304dd,Form2,63,0,ppf14,NULL,amy_item=TrueTrueFalseFiller_role=trueSE,no
1481061094,4b7185e561a8f3d348402251f27304dd,Form2,63,0,ppf14,NULL,bob_item=TrueTrueFalseFiller_role=false,yes
1481061094,4b7185e561a8f3d348402251f27304dd,Form2,63,0,ppf14,NULL,chris_item=TrueTrueFalseFiller_role=truePerfect,no
1481061094,4b7185e561a8f3d348402251f27304dd,Form2,63,0,ppf14,NULL,_REACTION_TIME_,1764
1481061094,4b7185e561a8f3d348402251f27304dd,Form2,58,0,ppf9,NULL,amy_item=TrueTrueFalseFiller_role=false,no
1481061094,4b7185e561a8f3d348402251f27304dd,Form2,58,0,ppf9,NULL,bob_item=TrueTrueFalseFiller_role=trueSE,no
1481061094,4b7185e561a8f3d348402251f27304dd,Form2,58,0,ppf9,NULL,chris_item=TrueTrueFalseFiller_role=truePerfect,yes
1481061094,4b7185e561a8f3d348402251f27304dd,Form2,58,0,ppf9,NULL,_REACTION_TIME_,2101
1481061094,4b7185e561a8f3d348402251f27304dd,Form2,48,0,ua9,NULL,amy_item=UA_role=falsecontrol,no
1481061094,4b7185e561a8f3d348402251f27304dd,Form2,48,0,ua9,NULL,bob_item=UA_role=truecontrolSE,yes
1481061094,4b7185e561a8f3d348402251f27304dd,Form2,48,0,ua9,NULL,chris_item=UA_role=target,no
1481061094,4b7185e561a8f3d348402251f27304dd,Form2,48,0,ua9,NULL,_REACTION_TIME_,1739
1481061094,4b7185e561a8f3d348402251f27304dd,Form2,83,0,win4,NULL,amy_item=winFiller_role=truecontrolSE,yes
1481061094,4b7185e561a8f3d348402251f27304dd,Form2,83,0,win4,NULL,bob_item=winFiller_role=falsecontrol,no
1481061094,4b7185e561a8f3d348402251f27304dd,Form2,83,0,win4,NULL,chris_item=winFiller_role=UDtarget,no
1481061094,4b7185e561a8f3d348402251f27304dd,Form2,83,0,win4,NULL,_REACTION_TIME_,3475
1481061094,4b7185e561a8f3d348402251f27304dd,Form2,56,0,ppf7,NULL,amy_item=TrueTrueFalseFiller_role=truePerfect,no
1481061094,4b7185e561a8f3d348402251f27304dd,Form2,56,0,ppf7,NULL,bob_item=TrueTrueFalseFiller_role=false,yes
1481061094,4b7185e561a8f3d348402251f27304dd,Form2,56,0,ppf7,NULL,chris_item=TrueTrueFalseFiller_role=trueSE,no
1481061094,4b7185e561a8f3d348402251f27304dd,Form2,56,0,ppf7,NULL,_REACTION_TIME_,1834
1481061094,4b7185e561a8f3d348402251f27304dd,Form2,37,0,ud8,NULL,amy_item=UD_role=truecontrolSE,no
1481061094,4b7185e561a8f3d348402251f27304dd,Form2,37,0,ud8,NULL,bob_item=UD_role=target,no
1481061094,4b7185e561a8f3d348402251f27304dd,Form2,37,0,ud8,NULL,chris_item=UD_role=falsecontrol,yes
1481061094,4b7185e561a8f3d348402251f27304dd,Form2,37,0,ud8,NULL,_REACTION_TIME_,1479
1481061094,4b7185e561a8f3d348402251f27304dd,Form2,44,0,ua5,NULL,amy_item=UA_role=falsecontrol,yes
1481061094,4b7185e561a8f3d348402251f27304dd,Form2,44,0,ua5,NULL,bob_item=UA_role=truecontrolSE,no
1481061094,4b7185e561a8f3d348402251f27304dd,Form2,44,0,ua5,NULL,chris_item=UA_role=target,no
1481061094,4b7185e561a8f3d348402251f27304dd,Form2,44,0,ua5,NULL,_REACTION_TIME_,2901
1481061094,4b7185e561a8f3d348402251f27304dd,Form2,30,0,ud1,NULL,amy_item=UD_role=falsecontrol,no
1481061094,4b7185e561a8f3d348402251f27304dd,Form2,30,0,ud1,NULL,bob_item=UD_role=target,no
1481061094,4b7185e561a8f3d348402251f27304dd,Form2,30,0,ud1,NULL,chris_item=UD_role=truecontrolSE,yes
1481061094,4b7185e561a8f3d348402251f27304dd,Form2,30,0,ud1,NULL,_REACTION_TIME_,1604
1481061094,4b7185e561a8f3d348402251f27304dd,Form2,82,0,win3,NULL,amy_item=winFiller_role=falsecontrol,no
1481061094,4b7185e561a8f3d348402251f27304dd,Form2,82,0,win3,NULL,bob_item=winFiller_role=truecontrolSE,yes
1481061094,4b7185e561a8f3d348402251f27304dd,Form2,82,0,win3,NULL,chris_item=winFiller_role=UDtarget,no
1481061094,4b7185e561a8f3d348402251f27304dd,Form2,82,0,win3,NULL,_REACTION_TIME_,2067
1481061094,4b7185e561a8f3d348402251f27304dd,Form2,10,0,od1,NULL,amy_item=OD_role=truecontrolSE,no
1481061094,4b7185e561a8f3d348402251f27304dd,Form2,10,0,od1,NULL,bob_item=OD_role=falsecontrol,no
1481061094,4b7185e561a8f3d348402251f27304dd,Form2,10,0,od1,NULL,chris_item=OD_role=target,yes
1481061094,4b7185e561a8f3d348402251f27304dd,Form2,10,0,od1,NULL,_REACTION_TIME_,2461
1481061094,4b7185e561a8f3d348402251f27304dd,Form2,27,0,oa8,NULL,amy_item=OA_role=falsecontrol,yes
1481061094,4b7185e561a8f3d348402251f27304dd,Form2,27,0,oa8,NULL,bob_item=OA_role=target,no
1481061094,4b7185e561a8f3d348402251f27304dd,Form2,27,0,oa8,NULL,chris_item=OA_role=truecontrolSE,no
1481061094,4b7185e561a8f3d348402251f27304dd,Form2,27,0,oa8,NULL,_REACTION_TIME_,2040
1481061094,4b7185e561a8f3d348402251f27304dd,Form2,78,0,sym9,NULL,amy_item=whichSymbolFiller_role=truecontrolSE,no
1481061094,4b7185e561a8f3d348402251f27304dd,Form2,78,0,sym9,NULL,bob_item=whichSymbolFiller_role=falsecontrol,no
1481061094,4b7185e561a8f3d348402251f27304dd,Form2,78,0,sym9,NULL,chris_item=whichSymbolFiller_role=UDtargetTrue,yes
1481061094,4b7185e561a8f3d348402251f27304dd,Form2,78,0,sym9,NULL,_REACTION_TIME_,3678
1481061094,4b7185e561a8f3d348402251f27304dd,Form2,15,0,od6,NULL,amy_item=OD_role=target,no
1481061094,4b7185e561a8f3d348402251f27304dd,Form2,15,0,od6,NULL,bob_item=OD_role=falsecontrol,yes
1481061094,4b7185e561a8f3d348402251f27304dd,Form2,15,0,od6,NULL,chris_item=OD_role=truecontrolSE,no
1481061094,4b7185e561a8f3d348402251f27304dd,Form2,15,0,od6,NULL,_REACTION_TIME_,2841
1481061094,4b7185e561a8f3d348402251f27304dd,Form2,22,0,oa3,NULL,amy_item=OA_role=truecontrolSE,yes
1481061094,4b7185e561a8f3d348402251f27304dd,Form2,22,0,oa3,NULL,bob_item=OA_role=target,no
1481061094,4b7185e561a8f3d348402251f27304dd,Form2,22,0,oa3,NULL,chris_item=OA_role=falsecontrol,no
1481061094,4b7185e561a8f3d348402251f27304dd,Form2,22,0,oa3,NULL,_REACTION_TIME_,2135
1481061094,4b7185e561a8f3d348402251f27304dd,Form2,49,0,ppf0,NULL,amy_item=TrueTrueFalseFiller_role=truePerfect,no
1481061094,4b7185e561a8f3d348402251f27304dd,Form2,49,0,ppf0,NULL,bob_item=TrueTrueFalseFiller_role=trueSE,no
1481061094,4b7185e561a8f3d348402251f27304dd,Form2,49,0,ppf0,NULL,chris_item=TrueTrueFalseFiller_role=false,yes
1481061094,4b7185e561a8f3d348402251f27304dd,Form2,49,0,ppf0,NULL,_REACTION_TIME_,2596
1481061094,4b7185e561a8f3d348402251f27304dd,Form2,80,0,win1,NULL,amy_item=winFiller_role=truecontrolSE,no
1481061094,4b7185e561a8f3d348402251f27304dd,Form2,80,0,win1,NULL,bob_item=winFiller_role=UDtarget,yes
1481061094,4b7185e561a8f3d348402251f27304dd,Form2,80,0,win1,NULL,chris_item=winFiller_role=falsecontrol,no
1481061094,4b7185e561a8f3d348402251f27304dd,Form2,80,0,win1,NULL,_REACTION_TIME_,2239
1481061094,4b7185e561a8f3d348402251f27304dd,Form2,54,0,ppf5,NULL,amy_item=TrueTrueFalseFiller_role=trueSE,yes
1481061094,4b7185e561a8f3d348402251f27304dd,Form2,54,0,ppf5,NULL,bob_item=TrueTrueFalseFiller_role=truePerfect,no
1481061094,4b7185e561a8f3d348402251f27304dd,Form2,54,0,ppf5,NULL,chris_item=TrueTrueFalseFiller_role=false,no
1481061094,4b7185e561a8f3d348402251f27304dd,Form2,54,0,ppf5,NULL,_REACTION_TIME_,1821
1481061094,4b7185e561a8f3d348402251f27304dd,Form2,64,0,ppf15,NULL,amy_item=TrueTrueFalseFiller_role=false,no
1481061094,4b7185e561a8f3d348402251f27304dd,Form2,64,0,ppf15,NULL,bob_item=TrueTrueFalseFiller_role=trueSE,yes
1481061094,4b7185e561a8f3d348402251f27304dd,Form2,64,0,ppf15,NULL,chris_item=TrueTrueFalseFiller_role=truePerfect,no
1481061094,4b7185e561a8f3d348402251f27304dd,Form2,64,0,ppf15,NULL,_REACTION_TIME_,2548
1481061094,4b7185e561a8f3d348402251f27304dd,Form2,17,0,od8,NULL,amy_item=OD_role=target,no
1481061094,4b7185e561a8f3d348402251f27304dd,Form2,17,0,od8,NULL,bob_item=OD_role=falsecontrol,no
1481061094,4b7185e561a8f3d348402251f27304dd,Form2,17,0,od8,NULL,chris_item=OD_role=truecontrolSE,yes
1481061094,4b7185e561a8f3d348402251f27304dd,Form2,17,0,od8,NULL,_REACTION_TIME_,1761
1481061094,4b7185e561a8f3d348402251f27304dd,Form2,39,0,ua0,NULL,amy_item=UA_role=target,no
1481061094,4b7185e561a8f3d348402251f27304dd,Form2,39,0,ua0,NULL,bob_item=UA_role=falsecontrol,yes
1481061094,4b7185e561a8f3d348402251f27304dd,Form2,39,0,ua0,NULL,chris_item=UA_role=truecontrolSE,no
1481061094,4b7185e561a8f3d348402251f27304dd,Form2,39,0,ua0,NULL,_REACTION_TIME_,2369
1481061094,4b7185e561a8f3d348402251f27304dd,Form2,43,0,ua4,NULL,amy_item=UA_role=falsecontrol,yes
1481061094,4b7185e561a8f3d348402251f27304dd,Form2,43,0,ua4,NULL,bob_item=UA_role=target,no
1481061094,4b7185e561a8f3d348402251f27304dd,Form2,43,0,ua4,NULL,chris_item=UA_role=truecontrolSE,no
1481061094,4b7185e561a8f3d348402251f27304dd,Form2,43,0,ua4,NULL,_REACTION_TIME_,2785
1481061094,4b7185e561a8f3d348402251f27304dd,Form2,74,0,sym5,NULL,amy_item=whichSymbolFiller_role=UDtargetTrue,no
1481061094,4b7185e561a8f3d348402251f27304dd,Form2,74,0,sym5,NULL,bob_item=whichSymbolFiller_role=truecontrolSE,no
1481061094,4b7185e561a8f3d348402251f27304dd,Form2,74,0,sym5,NULL,chris_item=whichSymbolFiller_role=falsecontrol,yes
1481061094,4b7185e561a8f3d348402251f27304dd,Form2,74,0,sym5,NULL,_REACTION_TIME_,1466
1481061094,4b7185e561a8f3d348402251f27304dd,Form2,29,0,ud0,NULL,amy_item=UD_role=target,no
1481061094,4b7185e561a8f3d348402251f27304dd,Form2,29,0,ud0,NULL,bob_item=UD_role=falsecontrol,yes
1481061094,4b7185e561a8f3d348402251f27304dd,Form2,29,0,ud0,NULL,chris_item=UD_role=truecontrolSE,no
1481061094,4b7185e561a8f3d348402251f27304dd,Form2,29,0,ud0,NULL,_REACTION_TIME_,2212
1481061094,4b7185e561a8f3d348402251f27304dd,Form2,21,0,oa2,NULL,amy_item=OA_role=falsecontrol,no
1481061094,4b7185e561a8f3d348402251f27304dd,Form2,21,0,oa2,NULL,bob_item=OA_role=target,no
1481061094,4b7185e561a8f3d348402251f27304dd,Form2,21,0,oa2,NULL,chris_item=OA_role=truecontrolSE,yes
1481061094,4b7185e561a8f3d348402251f27304dd,Form2,21,0,oa2,NULL,_REACTION_TIME_,3294
1481061094,4b7185e561a8f3d348402251f27304dd,Form2,59,0,ppf10,NULL,amy_item=TrueTrueFalseFiller_role=trueSE,no
1481061094,4b7185e561a8f3d348402251f27304dd,Form2,59,0,ppf10,NULL,bob_item=TrueTrueFalseFiller_role=truePerfect,yes
1481061094,4b7185e561a8f3d348402251f27304dd,Form2,59,0,ppf10,NULL,chris_item=TrueTrueFalseFiller_role=false,no
1481061094,4b7185e561a8f3d348402251f27304dd,Form2,59,0,ppf10,NULL,_REACTION_TIME_,1748
1481061094,4b7185e561a8f3d348402251f27304dd,Form2,66,0,ppf17,NULL,amy_item=TrueTrueFalseFiller_role=false,yes
1481061094,4b7185e561a8f3d348402251f27304dd,Form2,66,0,ppf17,NULL,bob_item=TrueTrueFalseFiller_role=trueSE,no
1481061094,4b7185e561a8f3d348402251f27304dd,Form2,66,0,ppf17,NULL,chris_item=TrueTrueFalseFiller_role=truePerfect,no
1481061094,4b7185e561a8f3d348402251f27304dd,Form2,66,0,ppf17,NULL,_REACTION_TIME_,1939
1481061094,4b7185e561a8f3d348402251f27304dd,Form2,71,0,sym2,NULL,amy_item=whichSymbolFiller_role=truecontrolSE,no
1481061094,4b7185e561a8f3d348402251f27304dd,Form2,71,0,sym2,NULL,bob_item=whichSymbolFiller_role=UDtargetTrue,no
1481061094,4b7185e561a8f3d348402251f27304dd,Form2,71,0,sym2,NULL,chris_item=whichSymbolFiller_role=falsecontrol,yes
1481061094,4b7185e561a8f3d348402251f27304dd,Form2,71,0,sym2,NULL,_REACTION_TIME_,1848
1481061094,4b7185e561a8f3d348402251f27304dd,Form2,36,0,ud7,NULL,amy_item=UD_role=falsecontrol,no
1481061094,4b7185e561a8f3d348402251f27304dd,Form2,36,0,ud7,NULL,bob_item=UD_role=target,no
1481061094,4b7185e561a8f3d348402251f27304dd,Form2,36,0,ud7,NULL,chris_item=UD_role=truecontrolSE,yes
1481061094,4b7185e561a8f3d348402251f27304dd,Form2,36,0,ud7,NULL,_REACTION_TIME_,4371
1481061094,4b7185e561a8f3d348402251f27304dd,Form2,25,0,oa6,NULL,amy_item=OA_role=falsecontrol,no
1481061094,4b7185e561a8f3d348402251f27304dd,Form2,25,0,oa6,NULL,bob_item=OA_role=truecontrolSE,yes
1481061094,4b7185e561a8f3d348402251f27304dd,Form2,25,0,oa6,NULL,chris_item=OA_role=target,no
1481061094,4b7185e561a8f3d348402251f27304dd,Form2,25,0,oa6,NULL,_REACTION_TIME_,6724
1481061094,4b7185e561a8f3d348402251f27304dd,Form2,33,0,ud4,NULL,amy_item=UD_role=truecontrolSE,no
1481061094,4b7185e561a8f3d348402251f27304dd,Form2,33,0,ud4,NULL,bob_item=UD_role=target,no
1481061094,4b7185e561a8f3d348402251f27304dd,Form2,33,0,ud4,NULL,chris_item=UD_role=falsecontrol,yes
1481061094,4b7185e561a8f3d348402251f27304dd,Form2,33,0,ud4,NULL,_REACTION_TIME_,1848
1481061094,4b7185e561a8f3d348402251f27304dd,Form2,81,0,win2,NULL,amy_item=winFiller_role=truecontrolSE,no
1481061094,4b7185e561a8f3d348402251f27304dd,Form2,81,0,win2,NULL,bob_item=winFiller_role=falsecontrol,no
1481061094,4b7185e561a8f3d348402251f27304dd,Form2,81,0,win2,NULL,chris_item=winFiller_role=UDtarget,yes
1481061094,4b7185e561a8f3d348402251f27304dd,Form2,81,0,win2,NULL,_REACTION_TIME_,1625
1481061094,4b7185e561a8f3d348402251f27304dd,Form2,32,0,ud3,NULL,amy_item=UD_role=truecontrolSE,no
1481061094,4b7185e561a8f3d348402251f27304dd,Form2,32,0,ud3,NULL,bob_item=UD_role=target,yes
1481061094,4b7185e561a8f3d348402251f27304dd,Form2,32,0,ud3,NULL,chris_item=UD_role=falsecontrol,no
1481061094,4b7185e561a8f3d348402251f27304dd,Form2,32,0,ud3,NULL,_REACTION_TIME_,2131
1481061094,4b7185e561a8f3d348402251f27304dd,Form2,16,0,od7,NULL,amy_item=OD_role=target,no
1481061094,4b7185e561a8f3d348402251f27304dd,Form2,16,0,od7,NULL,bob_item=OD_role=truecontrolSE,no
1481061094,4b7185e561a8f3d348402251f27304dd,Form2,16,0,od7,NULL,chris_item=OD_role=falsecontrol,yes
1481061094,4b7185e561a8f3d348402251f27304dd,Form2,16,0,od7,NULL,_REACTION_TIME_,2298
1481061094,4b7185e561a8f3d348402251f27304dd,Form2,50,0,ppf1,NULL,amy_item=TrueTrueFalseFiller_role=false,no
1481061094,4b7185e561a8f3d348402251f27304dd,Form2,50,0,ppf1,NULL,bob_item=TrueTrueFalseFiller_role=truePerfect,yes
1481061094,4b7185e561a8f3d348402251f27304dd,Form2,50,0,ppf1,NULL,chris_item=TrueTrueFalseFiller_role=trueSE,no
1481061094,4b7185e561a8f3d348402251f27304dd,Form2,50,0,ppf1,NULL,_REACTION_TIME_,2737
1481061094,4b7185e561a8f3d348402251f27304dd,Form2,24,0,oa5,NULL,amy_item=OA_role=target,yes
1481061094,4b7185e561a8f3d348402251f27304dd,Form2,24,0,oa5,NULL,bob_item=OA_role=falsecontrol,no
1481061094,4b7185e561a8f3d348402251f27304dd,Form2,24,0,oa5,NULL,chris_item=OA_role=truecontrolSE,no
1481061094,4b7185e561a8f3d348402251f27304dd,Form2,24,0,oa5,NULL,_REACTION_TIME_,2873
1481061094,4b7185e561a8f3d348402251f27304dd,Form2,42,0,ua3,NULL,amy_item=UA_role=truecontrolSE,no
1481061094,4b7185e561a8f3d348402251f27304dd,Form2,42,0,ua3,NULL,bob_item=UA_role=falsecontrol,no
1481061094,4b7185e561a8f3d348402251f27304dd,Form2,42,0,ua3,NULL,chris_item=UA_role=target,yes
1481061094,4b7185e561a8f3d348402251f27304dd,Form2,42,0,ua3,NULL,_REACTION_TIME_,2155
1481061094,4b7185e561a8f3d348402251f27304dd,Form2,13,0,od4,NULL,amy_item=OD_role=target,no
1481061094,4b7185e561a8f3d348402251f27304dd,Form2,13,0,od4,NULL,bob_item=OD_role=truecontrolSE,yes
1481061094,4b7185e561a8f3d348402251f27304dd,Form2,13,0,od4,NULL,chris_item=OD_role=falsecontrol,no
1481061094,4b7185e561a8f3d348402251f27304dd,Form2,13,0,od4,NULL,_REACTION_TIME_,1842
1481061094,4b7185e561a8f3d348402251f27304dd,Form2,12,0,od3,NULL,amy_item=OD_role=falsecontrol,no
1481061094,4b7185e561a8f3d348402251f27304dd,Form2,12,0,od3,NULL,bob_item=OD_role=truecontrolSE,no
1481061094,4b7185e561a8f3d348402251f27304dd,Form2,12,0,od3,NULL,chris_item=OD_role=target,yes
1481061094,4b7185e561a8f3d348402251f27304dd,Form2,12,0,od3,NULL,_REACTION_TIME_,1637
1481061094,4b7185e561a8f3d348402251f27304dd,Form2,28,0,oa9,NULL,amy_item=OA_role=target,yes
1481061094,4b7185e561a8f3d348402251f27304dd,Form2,28,0,oa9,NULL,bob_item=OA_role=truecontrolSE,no
1481061094,4b7185e561a8f3d348402251f27304dd,Form2,28,0,oa9,NULL,chris_item=OA_role=falsecontrol,no
1481061094,4b7185e561a8f3d348402251f27304dd,Form2,28,0,oa9,NULL,_REACTION_TIME_,4057
1481061094,4b7185e561a8f3d348402251f27304dd,Form2,69,0,sym0,NULL,amy_item=whichSymbolFiller_role=truecontrolSE,no
1481061094,4b7185e561a8f3d348402251f27304dd,Form2,69,0,sym0,NULL,bob_item=whichSymbolFiller_role=UDtargetTrue,no
1481061094,4b7185e561a8f3d348402251f27304dd,Form2,69,0,sym0,NULL,chris_item=whichSymbolFiller_role=falsecontrol,yes
1481061094,4b7185e561a8f3d348402251f27304dd,Form2,69,0,sym0,NULL,_REACTION_TIME_,4049
1481061094,4b7185e561a8f3d348402251f27304dd,Form2,14,0,od5,NULL,amy_item=OD_role=target,no
1481061094,4b7185e561a8f3d348402251f27304dd,Form2,14,0,od5,NULL,bob_item=OD_role=falsecontrol,yes
1481061094,4b7185e561a8f3d348402251f27304dd,Form2,14,0,od5,NULL,chris_item=OD_role=truecontrolSE,no
1481061094,4b7185e561a8f3d348402251f27304dd,Form2,14,0,od5,NULL,_REACTION_TIME_,1832
1481061094,4b7185e561a8f3d348402251f27304dd,Form2,40,0,ua1,NULL,amy_item=UA_role=target,no
1481061094,4b7185e561a8f3d348402251f27304dd,Form2,40,0,ua1,NULL,bob_item=UA_role=falsecontrol,yes
1481061094,4b7185e561a8f3d348402251f27304dd,Form2,40,0,ua1,NULL,chris_item=UA_role=truecontrolSE,no
1481061094,4b7185e561a8f3d348402251f27304dd,Form2,40,0,ua1,NULL,_REACTION_TIME_,3496
1481061094,4b7185e561a8f3d348402251f27304dd,Form2,31,0,ud2,NULL,amy_item=UD_role=falsecontrol,no
1481061094,4b7185e561a8f3d348402251f27304dd,Form2,31,0,ud2,NULL,bob_item=UD_role=target,yes
1481061094,4b7185e561a8f3d348402251f27304dd,Form2,31,0,ud2,NULL,chris_item=UD_role=truecontrolSE,no
1481061094,4b7185e561a8f3d348402251f27304dd,Form2,31,0,ud2,NULL,_REACTION_TIME_,2583
1481061094,4b7185e561a8f3d348402251f27304dd,Form2,35,0,ud6,NULL,amy_item=UD_role=truecontrolSE,no
1481061094,4b7185e561a8f3d348402251f27304dd,Form2,35,0,ud6,NULL,bob_item=UD_role=falsecontrol,yes
1481061094,4b7185e561a8f3d348402251f27304dd,Form2,35,0,ud6,NULL,chris_item=UD_role=target,no
1481061094,4b7185e561a8f3d348402251f27304dd,Form2,35,0,ud6,NULL,_REACTION_TIME_,2026
1481061094,4b7185e561a8f3d348402251f27304dd,Form2,77,0,sym8,NULL,amy_item=whichSymbolFiller_role=UDtargetTrue,yes
1481061094,4b7185e561a8f3d348402251f27304dd,Form2,77,0,sym8,NULL,bob_item=whichSymbolFiller_role=truecontrolSE,no
1481061094,4b7185e561a8f3d348402251f27304dd,Form2,77,0,sym8,NULL,chris_item=whichSymbolFiller_role=falsecontrol,no
1481061094,4b7185e561a8f3d348402251f27304dd,Form2,77,0,sym8,NULL,_REACTION_TIME_,1887
1481061094,4b7185e561a8f3d348402251f27304dd,Form2,62,0,ppf13,NULL,amy_item=TrueTrueFalseFiller_role=trueSE,yes
1481061094,4b7185e561a8f3d348402251f27304dd,Form2,62,0,ppf13,NULL,bob_item=TrueTrueFalseFiller_role=truePerfect,no
1481061094,4b7185e561a8f3d348402251f27304dd,Form2,62,0,ppf13,NULL,chris_item=TrueTrueFalseFiller_role=false,no
1481061094,4b7185e561a8f3d348402251f27304dd,Form2,62,0,ppf13,NULL,_REACTION_TIME_,2963
1481061094,4b7185e561a8f3d348402251f27304dd,Form2,68,0,ppf19,NULL,amy_item=TrueTrueFalseFiller_role=false,no
1481061094,4b7185e561a8f3d348402251f27304dd,Form2,68,0,ppf19,NULL,bob_item=TrueTrueFalseFiller_role=truePerfect,yes
1481061094,4b7185e561a8f3d348402251f27304dd,Form2,68,0,ppf19,NULL,chris_item=TrueTrueFalseFiller_role=trueSE,no
1481061094,4b7185e561a8f3d348402251f27304dd,Form2,68,0,ppf19,NULL,_REACTION_TIME_,4558
1481061094,4b7185e561a8f3d348402251f27304dd,Form2,34,0,ud5,NULL,amy_item=UD_role=falsecontrol,no
1481061094,4b7185e561a8f3d348402251f27304dd,Form2,34,0,ud5,NULL,bob_item=UD_role=truecontrolSE,no
1481061094,4b7185e561a8f3d348402251f27304dd,Form2,34,0,ud5,NULL,chris_item=UD_role=target,yes
1481061094,4b7185e561a8f3d348402251f27304dd,Form2,34,0,ud5,NULL,_REACTION_TIME_,4968
1481061094,4b7185e561a8f3d348402251f27304dd,Form2,52,0,ppf3,NULL,amy_item=TrueTrueFalseFiller_role=truePerfect,no
1481061094,4b7185e561a8f3d348402251f27304dd,Form2,52,0,ppf3,NULL,bob_item=TrueTrueFalseFiller_role=false,yes
1481061094,4b7185e561a8f3d348402251f27304dd,Form2,52,0,ppf3,NULL,chris_item=TrueTrueFalseFiller_role=trueSE,no
1481061094,4b7185e561a8f3d348402251f27304dd,Form2,52,0,ppf3,NULL,_REACTION_TIME_,1806
1481061094,4b7185e561a8f3d348402251f27304dd,Form2,51,0,ppf2,NULL,amy_item=TrueTrueFalseFiller_role=false,yes
1481061094,4b7185e561a8f3d348402251f27304dd,Form2,51,0,ppf2,NULL,bob_item=TrueTrueFalseFiller_role=truePerfect,no
1481061094,4b7185e561a8f3d348402251f27304dd,Form2,51,0,ppf2,NULL,chris_item=TrueTrueFalseFiller_role=trueSE,no
1481061094,4b7185e561a8f3d348402251f27304dd,Form2,51,0,ppf2,NULL,_REACTION_TIME_,2772
1481061094,4b7185e561a8f3d348402251f27304dd,Form2,38,0,ud9,NULL,amy_item=UD_role=target,no
1481061094,4b7185e561a8f3d348402251f27304dd,Form2,38,0,ud9,NULL,bob_item=UD_role=falsecontrol,yes
1481061094,4b7185e561a8f3d348402251f27304dd,Form2,38,0,ud9,NULL,chris_item=UD_role=truecontrolSE,no
1481061094,4b7185e561a8f3d348402251f27304dd,Form2,38,0,ud9,NULL,_REACTION_TIME_,2495
1481061094,4b7185e561a8f3d348402251f27304dd,Form2,18,0,od9,NULL,amy_item=OD_role=truecontrolSE,no
1481061094,4b7185e561a8f3d348402251f27304dd,Form2,18,0,od9,NULL,bob_item=OD_role=target,no
1481061094,4b7185e561a8f3d348402251f27304dd,Form2,18,0,od9,NULL,chris_item=OD_role=falsecontrol,yes
1481061094,4b7185e561a8f3d348402251f27304dd,Form2,18,0,od9,NULL,_REACTION_TIME_,1644
1481061094,4b7185e561a8f3d348402251f27304dd,Form2,20,0,oa1,NULL,amy_item=OA_role=falsecontrol,no
1481061094,4b7185e561a8f3d348402251f27304dd,Form2,20,0,oa1,NULL,bob_item=OA_role=truecontrolSE,yes
1481061094,4b7185e561a8f3d348402251f27304dd,Form2,20,0,oa1,NULL,chris_item=OA_role=target,no
1481061094,4b7185e561a8f3d348402251f27304dd,Form2,20,0,oa1,NULL,_REACTION_TIME_,1529
1481061094,4b7185e561a8f3d348402251f27304dd,Form2,55,0,ppf6,NULL,amy_item=TrueTrueFalseFiller_role=truePerfect,no
1481061094,4b7185e561a8f3d348402251f27304dd,Form2,55,0,ppf6,NULL,bob_item=TrueTrueFalseFiller_role=false,no
1481061094,4b7185e561a8f3d348402251f27304dd,Form2,55,0,ppf6,NULL,chris_item=TrueTrueFalseFiller_role=trueSE,yes
1481061094,4b7185e561a8f3d348402251f27304dd,Form2,55,0,ppf6,NULL,_REACTION_TIME_,1545
1481061094,4b7185e561a8f3d348402251f27304dd,Form2,53,0,ppf4,NULL,amy_item=TrueTrueFalseFiller_role=false,no
1481061094,4b7185e561a8f3d348402251f27304dd,Form2,53,0,ppf4,NULL,bob_item=TrueTrueFalseFiller_role=truePerfect,yes
1481061094,4b7185e561a8f3d348402251f27304dd,Form2,53,0,ppf4,NULL,chris_item=TrueTrueFalseFiller_role=trueSE,no
1481061094,4b7185e561a8f3d348402251f27304dd,Form2,53,0,ppf4,NULL,_REACTION_TIME_,2034
1481061094,4b7185e561a8f3d348402251f27304dd,Form2,79,0,win0,NULL,amy_item=winFiller_role=truecontrolSE,no
1481061094,4b7185e561a8f3d348402251f27304dd,Form2,79,0,win0,NULL,bob_item=winFiller_role=falsecontrol,yes
1481061094,4b7185e561a8f3d348402251f27304dd,Form2,79,0,win0,NULL,chris_item=winFiller_role=UDtarget,no
1481061094,4b7185e561a8f3d348402251f27304dd,Form2,79,0,win0,NULL,_REACTION_TIME_,2948
1481061094,4b7185e561a8f3d348402251f27304dd,Form2,47,0,ua8,NULL,amy_item=UA_role=target,yes
1481061094,4b7185e561a8f3d348402251f27304dd,Form2,47,0,ua8,NULL,bob_item=UA_role=falsecontrol,no
1481061094,4b7185e561a8f3d348402251f27304dd,Form2,47,0,ua8,NULL,chris_item=UA_role=truecontrolSE,no
1481061094,4b7185e561a8f3d348402251f27304dd,Form2,47,0,ua8,NULL,_REACTION_TIME_,2955
1481061094,4b7185e561a8f3d348402251f27304dd,Form2,9,0,od0,NULL,amy_item=OD_role=truecontrolSE,no
1481061094,4b7185e561a8f3d348402251f27304dd,Form2,9,0,od0,NULL,bob_item=OD_role=target,no
1481061094,4b7185e561a8f3d348402251f27304dd,Form2,9,0,od0,NULL,chris_item=OD_role=falsecontrol,yes
1481061094,4b7185e561a8f3d348402251f27304dd,Form2,9,0,od0,NULL,_REACTION_TIME_,2054
1481061094,4b7185e561a8f3d348402251f27304dd,Form2,73,0,sym4,NULL,amy_item=whichSymbolFiller_role=falsecontrol,no
1481061094,4b7185e561a8f3d348402251f27304dd,Form2,73,0,sym4,NULL,bob_item=whichSymbolFiller_role=truecontrolSE,yes
1481061094,4b7185e561a8f3d348402251f27304dd,Form2,73,0,sym4,NULL,chris_item=whichSymbolFiller_role=UDtargetTrue,no
1481061094,4b7185e561a8f3d348402251f27304dd,Form2,73,0,sym4,NULL,_REACTION_TIME_,1903
1481061094,4b7185e561a8f3d348402251f27304dd,Form2,70,0,sym1,NULL,amy_item=whichSymbolFiller_role=falsecontrol,no
1481061094,4b7185e561a8f3d348402251f27304dd,Form2,70,0,sym1,NULL,bob_item=whichSymbolFiller_role=UDtargetTrue,yes
1481061094,4b7185e561a8f3d348402251f27304dd,Form2,70,0,sym1,NULL,chris_item=whichSymbolFiller_role=truecontrolSE,no
1481061094,4b7185e561a8f3d348402251f27304dd,Form2,70,0,sym1,NULL,_REACTION_TIME_,2359
1481061094,4b7185e561a8f3d348402251f27304dd,Form2,61,0,ppf12,NULL,amy_item=TrueTrueFalseFiller_role=trueSE,no
1481061094,4b7185e561a8f3d348402251f27304dd,Form2,61,0,ppf12,NULL,bob_item=TrueTrueFalseFiller_role=false,yes
1481061094,4b7185e561a8f3d348402251f27304dd,Form2,61,0,ppf12,NULL,chris_item=TrueTrueFalseFiller_role=truePerfect,no
1481061094,4b7185e561a8f3d348402251f27304dd,Form2,61,0,ppf12,NULL,_REACTION_TIME_,2442
1481061094,4b7185e561a8f3d348402251f27304dd,Form2,26,0,oa7,NULL,amy_item=OA_role=target,yes
1481061094,4b7185e561a8f3d348402251f27304dd,Form2,26,0,oa7,NULL,bob_item=OA_role=truecontrolSE,no
1481061094,4b7185e561a8f3d348402251f27304dd,Form2,26,0,oa7,NULL,chris_item=OA_role=falsecontrol,no
1481061094,4b7185e561a8f3d348402251f27304dd,Form2,26,0,oa7,NULL,_REACTION_TIME_,2111
1481061094,4b7185e561a8f3d348402251f27304dd,Form2,86,0,lose2,NULL,amy_item=winFiller_role=falsecontrolSE,no
1481061094,4b7185e561a8f3d348402251f27304dd,Form2,86,0,lose2,NULL,bob_item=winFiller_role=UDtarget,no
1481061094,4b7185e561a8f3d348402251f27304dd,Form2,86,0,lose2,NULL,chris_item=winFiller_role=truecontrol,yes
1481061094,4b7185e561a8f3d348402251f27304dd,Form2,86,0,lose2,NULL,_REACTION_TIME_,2672
1481061094,4b7185e561a8f3d348402251f27304dd,Form2,11,0,od2,NULL,amy_item=OD_role=falsecontrol,no
1481061094,4b7185e561a8f3d348402251f27304dd,Form2,11,0,od2,NULL,bob_item=OD_role=target,no
1481061094,4b7185e561a8f3d348402251f27304dd,Form2,11,0,od2,NULL,chris_item=OD_role=truecontrolSE,yes
1481061094,4b7185e561a8f3d348402251f27304dd,Form2,11,0,od2,NULL,_REACTION_TIME_,1736
1481061094,4b7185e561a8f3d348402251f27304dd,Form2,57,0,ppf8,NULL,amy_item=TrueTrueFalseFiller_role=trueSE,no
1481061094,4b7185e561a8f3d348402251f27304dd,Form2,57,0,ppf8,NULL,bob_item=TrueTrueFalseFiller_role=false,yes
1481061094,4b7185e561a8f3d348402251f27304dd,Form2,57,0,ppf8,NULL,chris_item=TrueTrueFalseFiller_role=truePerfect,no
1481061094,4b7185e561a8f3d348402251f27304dd,Form2,57,0,ppf8,NULL,_REACTION_TIME_,1918
1481061094,4b7185e561a8f3d348402251f27304dd,Form2,84,0,lose0,NULL,amy_item=winFiller_role=truecontrol,yes
1481061094,4b7185e561a8f3d348402251f27304dd,Form2,84,0,lose0,NULL,bob_item=winFiller_role=UDtarget,no
1481061094,4b7185e561a8f3d348402251f27304dd,Form2,84,0,lose0,NULL,chris_item=winFiller_role=falsecontrolSE,no
1481061094,4b7185e561a8f3d348402251f27304dd,Form2,84,0,lose0,NULL,_REACTION_TIME_,2483
1481061094,4b7185e561a8f3d348402251f27304dd,Form2,75,0,sym6,NULL,amy_item=whichSymbolFiller_role=falsecontrol,no
1481061094,4b7185e561a8f3d348402251f27304dd,Form2,75,0,sym6,NULL,bob_item=whichSymbolFiller_role=UDtargetTrue,yes
1481061094,4b7185e561a8f3d348402251f27304dd,Form2,75,0,sym6,NULL,chris_item=whichSymbolFiller_role=truecontrolSE,no
1481061094,4b7185e561a8f3d348402251f27304dd,Form2,75,0,sym6,NULL,_REACTION_TIME_,1716
1481061094,4b7185e561a8f3d348402251f27304dd,Form2,88,0,lose4,NULL,amy_item=winFiller_role=UDtarget,no
1481061094,4b7185e561a8f3d348402251f27304dd,Form2,88,0,lose4,NULL,bob_item=winFiller_role=truecontrol,no
1481061094,4b7185e561a8f3d348402251f27304dd,Form2,88,0,lose4,NULL,chris_item=winFiller_role=falsecontrolSE,yes
1481061094,4b7185e561a8f3d348402251f27304dd,Form2,88,0,lose4,NULL,_REACTION_TIME_,1512
1481061094,4b7185e561a8f3d348402251f27304dd,Form2,45,0,ua6,NULL,amy_item=UA_role=falsecontrol,no
1481061094,4b7185e561a8f3d348402251f27304dd,Form2,45,0,ua6,NULL,bob_item=UA_role=target,yes
1481061094,4b7185e561a8f3d348402251f27304dd,Form2,45,0,ua6,NULL,chris_item=UA_role=truecontrolSE,no
1481061094,4b7185e561a8f3d348402251f27304dd,Form2,45,0,ua6,NULL,_REACTION_TIME_,1982
1481061094,4b7185e561a8f3d348402251f27304dd,Form2,46,0,ua7,NULL,amy_item=UA_role=truecontrolSE,no
1481061094,4b7185e561a8f3d348402251f27304dd,Form2,46,0,ua7,NULL,bob_item=UA_role=target,no
1481061094,4b7185e561a8f3d348402251f27304dd,Form2,46,0,ua7,NULL,chris_item=UA_role=falsecontrol,yes
1481061094,4b7185e561a8f3d348402251f27304dd,Form2,46,0,ua7,NULL,_REACTION_TIME_,2242
1481061094,4b7185e561a8f3d348402251f27304dd,Form2,60,0,ppf11,NULL,amy_item=TrueTrueFalseFiller_role=trueSE,yes
1481061094,4b7185e561a8f3d348402251f27304dd,Form2,60,0,ppf11,NULL,bob_item=TrueTrueFalseFiller_role=false,no
1481061094,4b7185e561a8f3d348402251f27304dd,Form2,60,0,ppf11,NULL,chris_item=TrueTrueFalseFiller_role=truePerfect,no
1481061094,4b7185e561a8f3d348402251f27304dd,Form2,60,0,ppf11,NULL,_REACTION_TIME_,4405
1481061094,4b7185e561a8f3d348402251f27304dd,Form,3,0,questionnaire,NULL,age,35
1481061094,4b7185e561a8f3d348402251f27304dd,Form,3,0,questionnaire,NULL,language,English
1481061094,4b7185e561a8f3d348402251f27304dd,Form,3,0,questionnaire,NULL,mturkid,A3ULZGQA5AQMTD
1481061094,4b7185e561a8f3d348402251f27304dd,Form,3,0,questionnaire,NULL,_REACTION_TIME_,21995
#
# Results on Tuesday December 06 2016 21:51:50 UTC.
# USER AGENT: Mozilla/5.0 (Windows NT 10.0; Win64; x64) AppleWebKit/537.36 (KHTML, like Gecko) Chrome/54.0.2840.99 Safari/537.36
# Design number was non-random = 0
#
# Columns below this comment are as follows:
# 1. Time results were received.
# 2. MD5 hash of participant's IP address.
# 3. Controller name.
# 4. Item number.
# 5. Element number.
# 6. Type.
# 7. Group.
# 8. Field name.
# 9. Field value.
1481061111,42b57ef064861754b6f5351e6e01bdf1,Form,1,0,instructions,NULL,,no
1481061111,42b57ef064861754b6f5351e6e01bdf1,Form,1,0,instructions,NULL,,no
1481061111,42b57ef064861754b6f5351e6e01bdf1,Form,1,0,instructions,NULL,,no
1481061111,42b57ef064861754b6f5351e6e01bdf1,Form,1,0,instructions,NULL,,no
1481061111,42b57ef064861754b6f5351e6e01bdf1,Form,1,0,instructions,NULL,,no
1481061111,42b57ef064861754b6f5351e6e01bdf1,Form,1,0,instructions,NULL,,no
1481061111,42b57ef064861754b6f5351e6e01bdf1,Form,1,0,instructions,NULL,,no
1481061111,42b57ef064861754b6f5351e6e01bdf1,Form,1,0,instructions,NULL,,no
1481061111,42b57ef064861754b6f5351e6e01bdf1,Form,1,0,instructions,NULL,,no
1481061111,42b57ef064861754b6f5351e6e01bdf1,Form,1,0,instructions,NULL,,no
1481061111,42b57ef064861754b6f5351e6e01bdf1,Form,1,0,instructions,NULL,,no
1481061111,42b57ef064861754b6f5351e6e01bdf1,Form,1,0,instructions,NULL,,no
1481061111,42b57ef064861754b6f5351e6e01bdf1,Form,1,0,instructions,NULL,_REACTION_TIME_,67765
1481061111,42b57ef064861754b6f5351e6e01bdf1,Form2,4,0,training1,NULL,,yes
1481061111,42b57ef064861754b6f5351e6e01bdf1,Form2,4,0,training1,NULL,,no
1481061111,42b57ef064861754b6f5351e6e01bdf1,Form2,4,0,training1,NULL,,yes
1481061111,42b57ef064861754b6f5351e6e01bdf1,Form2,4,0,training1,NULL,_REACTION_TIME_,9571
1481061111,42b57ef064861754b6f5351e6e01bdf1,Form2,5,0,training2,NULL,,yes
1481061111,42b57ef064861754b6f5351e6e01bdf1,Form2,5,0,training2,NULL,,yes
1481061111,42b57ef064861754b6f5351e6e01bdf1,Form2,5,0,training2,NULL,,no
1481061111,42b57ef064861754b6f5351e6e01bdf1,Form2,5,0,training2,NULL,_REACTION_TIME_,3878
1481061111,42b57ef064861754b6f5351e6e01bdf1,Form2,6,0,training3,NULL,,no
1481061111,42b57ef064861754b6f5351e6e01bdf1,Form2,6,0,training3,NULL,,no
1481061111,42b57ef064861754b6f5351e6e01bdf1,Form2,6,0,training3,NULL,,yes
1481061111,42b57ef064861754b6f5351e6e01bdf1,Form2,6,0,training3,NULL,_REACTION_TIME_,4380
1481061111,42b57ef064861754b6f5351e6e01bdf1,Form2,7,0,training4,NULL,,yes
1481061111,42b57ef064861754b6f5351e6e01bdf1,Form2,7,0,training4,NULL,,yes
1481061111,42b57ef064861754b6f5351e6e01bdf1,Form2,7,0,training4,NULL,,no
1481061111,42b57ef064861754b6f5351e6e01bdf1,Form2,7,0,training4,NULL,_REACTION_TIME_,12807
1481061111,42b57ef064861754b6f5351e6e01bdf1,Form2,8,0,training5,NULL,,yes
1481061111,42b57ef064861754b6f5351e6e01bdf1,Form2,8,0,training5,NULL,,no
1481061111,42b57ef064861754b6f5351e6e01bdf1,Form2,8,0,training5,NULL,,no
1481061111,42b57ef064861754b6f5351e6e01bdf1,Form2,8,0,training5,NULL,_REACTION_TIME_,9781
1481061111,42b57ef064861754b6f5351e6e01bdf1,Form2,37,0,ud8,NULL,amy_item=UD_role=truecontrolSE,yes
1481061111,42b57ef064861754b6f5351e6e01bdf1,Form2,37,0,ud8,NULL,bob_item=UD_role=target,yes
1481061111,42b57ef064861754b6f5351e6e01bdf1,Form2,37,0,ud8,NULL,chris_item=UD_role=falsecontrol,no
1481061111,42b57ef064861754b6f5351e6e01bdf1,Form2,37,0,ud8,NULL,_REACTION_TIME_,3811
1481061111,42b57ef064861754b6f5351e6e01bdf1,Form2,19,0,oa0,NULL,amy_item=OA_role=target,yes
1481061111,42b57ef064861754b6f5351e6e01bdf1,Form2,19,0,oa0,NULL,bob_item=OA_role=falsecontrol,no
1481061111,42b57ef064861754b6f5351e6e01bdf1,Form2,19,0,oa0,NULL,chris_item=OA_role=truecontrolSE,yes
1481061111,42b57ef064861754b6f5351e6e01bdf1,Form2,19,0,oa0,NULL,_REACTION_TIME_,3641
1481061111,42b57ef064861754b6f5351e6e01bdf1,Form2,51,0,ppf2,NULL,amy_item=TrueTrueFalseFiller_role=false,no
1481061111,42b57ef064861754b6f5351e6e01bdf1,Form2,51,0,ppf2,NULL,bob_item=TrueTrueFalseFiller_role=truePerfect,yes
1481061111,42b57ef064861754b6f5351e6e01bdf1,Form2,51,0,ppf2,NULL,chris_item=TrueTrueFalseFiller_role=trueSE,yes
1481061111,42b57ef064861754b6f5351e6e01bdf1,Form2,51,0,ppf2,NULL,_REACTION_TIME_,2751
1481061111,42b57ef064861754b6f5351e6e01bdf1,Form2,15,0,od6,NULL,amy_item=OD_role=target,no
1481061111,42b57ef064861754b6f5351e6e01bdf1,Form2,15,0,od6,NULL,bob_item=OD_role=falsecontrol,no
1481061111,42b57ef064861754b6f5351e6e01bdf1,Form2,15,0,od6,NULL,chris_item=OD_role=truecontrolSE,yes
1481061111,42b57ef064861754b6f5351e6e01bdf1,Form2,15,0,od6,NULL,_REACTION_TIME_,2933
1481061111,42b57ef064861754b6f5351e6e01bdf1,Form2,21,0,oa2,NULL,amy_item=OA_role=falsecontrol,no
1481061111,42b57ef064861754b6f5351e6e01bdf1,Form2,21,0,oa2,NULL,bob_item=OA_role=target,yes
1481061111,42b57ef064861754b6f5351e6e01bdf1,Form2,21,0,oa2,NULL,chris_item=OA_role=truecontrolSE,yes
1481061111,42b57ef064861754b6f5351e6e01bdf1,Form2,21,0,oa2,NULL,_REACTION_TIME_,2585
1481061111,42b57ef064861754b6f5351e6e01bdf1,Form2,53,0,ppf4,NULL,amy_item=TrueTrueFalseFiller_role=false,no
1481061111,42b57ef064861754b6f5351e6e01bdf1,Form2,53,0,ppf4,NULL,bob_item=TrueTrueFalseFiller_role=truePerfect,yes
1481061111,42b57ef064861754b6f5351e6e01bdf1,Form2,53,0,ppf4,NULL,chris_item=TrueTrueFalseFiller_role=trueSE,yes
1481061111,42b57ef064861754b6f5351e6e01bdf1,Form2,53,0,ppf4,NULL,_REACTION_TIME_,2648
1481061111,42b57ef064861754b6f5351e6e01bdf1,Form2,78,0,sym9,NULL,amy_item=whichSymbolFiller_role=truecontrolSE,yes
1481061111,42b57ef064861754b6f5351e6e01bdf1,Form2,78,0,sym9,NULL,bob_item=whichSymbolFiller_role=falsecontrol,no
1481061111,42b57ef064861754b6f5351e6e01bdf1,Form2,78,0,sym9,NULL,chris_item=whichSymbolFiller_role=UDtargetTrue,yes
1481061111,42b57ef064861754b6f5351e6e01bdf1,Form2,78,0,sym9,NULL,_REACTION_TIME_,3159
1481061111,42b57ef064861754b6f5351e6e01bdf1,Form2,11,0,od2,NULL,amy_item=OD_role=falsecontrol,no
1481061111,42b57ef064861754b6f5351e6e01bdf1,Form2,11,0,od2,NULL,bob_item=OD_role=target,no
1481061111,42b57ef064861754b6f5351e6e01bdf1,Form2,11,0,od2,NULL,chris_item=OD_role=truecontrolSE,yes
1481061111,42b57ef064861754b6f5351e6e01bdf1,Form2,11,0,od2,NULL,_REACTION_TIME_,2728
1481061111,42b57ef064861754b6f5351e6e01bdf1,Form2,34,0,ud5,NULL,amy_item=UD_role=falsecontrol,no
1481061111,42b57ef064861754b6f5351e6e01bdf1,Form2,34,0,ud5,NULL,bob_item=UD_role=truecontrolSE,yes
1481061111,42b57ef064861754b6f5351e6e01bdf1,Form2,34,0,ud5,NULL,chris_item=UD_role=target,yes
1481061111,42b57ef064861754b6f5351e6e01bdf1,Form2,34,0,ud5,NULL,_REACTION_TIME_,3163
1481061111,42b57ef064861754b6f5351e6e01bdf1,Form2,86,0,lose2,NULL,amy_item=winFiller_role=falsecontrolSE,yes
1481061111,42b57ef064861754b6f5351e6e01bdf1,Form2,86,0,lose2,NULL,bob_item=winFiller_role=UDtarget,yes
1481061111,42b57ef064861754b6f5351e6e01bdf1,Form2,86,0,lose2,NULL,chris_item=winFiller_role=truecontrol,no
1481061111,42b57ef064861754b6f5351e6e01bdf1,Form2,86,0,lose2,NULL,_REACTION_TIME_,3829
1481061111,42b57ef064861754b6f5351e6e01bdf1,Form2,48,0,ua9,NULL,amy_item=UA_role=falsecontrol,no
1481061111,42b57ef064861754b6f5351e6e01bdf1,Form2,48,0,ua9,NULL,bob_item=UA_role=truecontrolSE,yes
1481061111,42b57ef064861754b6f5351e6e01bdf1,Form2,48,0,ua9,NULL,chris_item=UA_role=target,no
1481061111,42b57ef064861754b6f5351e6e01bdf1,Form2,48,0,ua9,NULL,_REACTION_TIME_,2176
1481061111,42b57ef064861754b6f5351e6e01bdf1,Form2,42,0,ua3,NULL,amy_item=UA_role=truecontrolSE,yes
1481061111,42b57ef064861754b6f5351e6e01bdf1,Form2,42,0,ua3,NULL,bob_item=UA_role=falsecontrol,no
1481061111,42b57ef064861754b6f5351e6e01bdf1,Form2,42,0,ua3,NULL,chris_item=UA_role=target,no
1481061111,42b57ef064861754b6f5351e6e01bdf1,Form2,42,0,ua3,NULL,_REACTION_TIME_,3661
1481061111,42b57ef064861754b6f5351e6e01bdf1,Form2,71,0,sym2,NULL,amy_item=whichSymbolFiller_role=truecontrolSE,yes
1481061111,42b57ef064861754b6f5351e6e01bdf1,Form2,71,0,sym2,NULL,bob_item=whichSymbolFiller_role=UDtargetTrue,yes
1481061111,42b57ef064861754b6f5351e6e01bdf1,Form2,71,0,sym2,NULL,chris_item=whichSymbolFiller_role=falsecontrol,no
1481061111,42b57ef064861754b6f5351e6e01bdf1,Form2,71,0,sym2,NULL,_REACTION_TIME_,3068
1481061111,42b57ef064861754b6f5351e6e01bdf1,Form2,32,0,ud3,NULL,amy_item=UD_role=truecontrolSE,yes
1481061111,42b57ef064861754b6f5351e6e01bdf1,Form2,32,0,ud3,NULL,bob_item=UD_role=target,yes
1481061111,42b57ef064861754b6f5351e6e01bdf1,Form2,32,0,ud3,NULL,chris_item=UD_role=falsecontrol,no
1481061111,42b57ef064861754b6f5351e6e01bdf1,Form2,32,0,ud3,NULL,_REACTION_TIME_,2649
1481061111,42b57ef064861754b6f5351e6e01bdf1,Form2,57,0,ppf8,NULL,amy_item=TrueTrueFalseFiller_role=trueSE,yes
1481061111,42b57ef064861754b6f5351e6e01bdf1,Form2,57,0,ppf8,NULL,bob_item=TrueTrueFalseFiller_role=false,no
1481061111,42b57ef064861754b6f5351e6e01bdf1,Form2,57,0,ppf8,NULL,chris_item=TrueTrueFalseFiller_role=truePerfect,yes
1481061111,42b57ef064861754b6f5351e6e01bdf1,Form2,57,0,ppf8,NULL,_REACTION_TIME_,2794
1481061111,42b57ef064861754b6f5351e6e01bdf1,Form2,75,0,sym6,NULL,amy_item=whichSymbolFiller_role=falsecontrol,no
1481061111,42b57ef064861754b6f5351e6e01bdf1,Form2,75,0,sym6,NULL,bob_item=whichSymbolFiller_role=UDtargetTrue,yes
1481061111,42b57ef064861754b6f5351e6e01bdf1,Form2,75,0,sym6,NULL,chris_item=whichSymbolFiller_role=truecontrolSE,yes
1481061111,42b57ef064861754b6f5351e6e01bdf1,Form2,75,0,sym6,NULL,_REACTION_TIME_,2140
1481061111,42b57ef064861754b6f5351e6e01bdf1,Form2,50,0,ppf1,NULL,amy_item=TrueTrueFalseFiller_role=false,no
1481061111,42b57ef064861754b6f5351e6e01bdf1,Form2,50,0,ppf1,NULL,bob_item=TrueTrueFalseFiller_role=truePerfect,yes
1481061111,42b57ef064861754b6f5351e6e01bdf1,Form2,50,0,ppf1,NULL,chris_item=TrueTrueFalseFiller_role=trueSE,yes
1481061111,42b57ef064861754b6f5351e6e01bdf1,Form2,50,0,ppf1,NULL,_REACTION_TIME_,1877
1481061111,42b57ef064861754b6f5351e6e01bdf1,Form2,62,0,ppf13,NULL,amy_item=TrueTrueFalseFiller_role=trueSE,yes
1481061111,42b57ef064861754b6f5351e6e01bdf1,Form2,62,0,ppf13,NULL,bob_item=TrueTrueFalseFiller_role=truePerfect,yes
1481061111,42b57ef064861754b6f5351e6e01bdf1,Form2,62,0,ppf13,NULL,chris_item=TrueTrueFalseFiller_role=false,no
1481061111,42b57ef064861754b6f5351e6e01bdf1,Form2,62,0,ppf13,NULL,_REACTION_TIME_,2247
1481061111,42b57ef064861754b6f5351e6e01bdf1,Form2,28,0,oa9,NULL,amy_item=OA_role=target,yes
1481061111,42b57ef064861754b6f5351e6e01bdf1,Form2,28,0,oa9,NULL,bob_item=OA_role=truecontrolSE,yes
1481061111,42b57ef064861754b6f5351e6e01bdf1,Form2,28,0,oa9,NULL,chris_item=OA_role=falsecontrol,no
1481061111,42b57ef064861754b6f5351e6e01bdf1,Form2,28,0,oa9,NULL,_REACTION_TIME_,3309
1481061111,42b57ef064861754b6f5351e6e01bdf1,Form2,14,0,od5,NULL,amy_item=OD_role=target,no
1481061111,42b57ef064861754b6f5351e6e01bdf1,Form2,14,0,od5,NULL,bob_item=OD_role=falsecontrol,no
1481061111,42b57ef064861754b6f5351e6e01bdf1,Form2,14,0,od5,NULL,chris_item=OD_role=truecontrolSE,yes
1481061111,42b57ef064861754b6f5351e6e01bdf1,Form2,14,0,od5,NULL,_REACTION_TIME_,2425
1481061111,42b57ef064861754b6f5351e6e01bdf1,Form2,55,0,ppf6,NULL,amy_item=TrueTrueFalseFiller_role=truePerfect,yes
1481061111,42b57ef064861754b6f5351e6e01bdf1,Form2,55,0,ppf6,NULL,bob_item=TrueTrueFalseFiller_role=false,no
1481061111,42b57ef064861754b6f5351e6e01bdf1,Form2,55,0,ppf6,NULL,chris_item=TrueTrueFalseFiller_role=trueSE,yes
1481061111,42b57ef064861754b6f5351e6e01bdf1,Form2,55,0,ppf6,NULL,_REACTION_TIME_,2392
1481061111,42b57ef064861754b6f5351e6e01bdf1,Form2,85,0,lose1,NULL,amy_item=winFiller_role=UDtarget,yes
1481061111,42b57ef064861754b6f5351e6e01bdf1,Form2,85,0,lose1,NULL,bob_item=winFiller_role=falsecontrolSE,yes
1481061111,42b57ef064861754b6f5351e6e01bdf1,Form2,85,0,lose1,NULL,chris_item=winFiller_role=truecontrol,no
1481061111,42b57ef064861754b6f5351e6e01bdf1,Form2,85,0,lose1,NULL,_REACTION_TIME_,2800
1481061111,42b57ef064861754b6f5351e6e01bdf1,Form2,72,0,sym3,NULL,amy_item=whichSymbolFiller_role=falsecontrol,no
1481061111,42b57ef064861754b6f5351e6e01bdf1,Form2,72,0,sym3,NULL,bob_item=whichSymbolFiller_role=truecontrolSE,yes
1481061111,42b57ef064861754b6f5351e6e01bdf1,Form2,72,0,sym3,NULL,chris_item=whichSymbolFiller_role=UDtargetTrue,yes
1481061111,42b57ef064861754b6f5351e6e01bdf1,Form2,72,0,sym3,NULL,_REACTION_TIME_,2449
1481061111,42b57ef064861754b6f5351e6e01bdf1,Form2,81,0,win2,NULL,amy_item=winFiller_role=truecontrolSE,yes
1481061111,42b57ef064861754b6f5351e6e01bdf1,Form2,81,0,win2,NULL,bob_item=winFiller_role=falsecontrol,no
1481061111,42b57ef064861754b6f5351e6e01bdf1,Form2,81,0,win2,NULL,chris_item=winFiller_role=UDtarget,yes
1481061111,42b57ef064861754b6f5351e6e01bdf1,Form2,81,0,win2,NULL,_REACTION_TIME_,3691
1481061111,42b57ef064861754b6f5351e6e01bdf1,Form2,80,0,win1,NULL,amy_item=winFiller_role=truecontrolSE,yes
1481061111,42b57ef064861754b6f5351e6e01bdf1,Form2,80,0,win1,NULL,bob_item=winFiller_role=UDtarget,yes
1481061111,42b57ef064861754b6f5351e6e01bdf1,Form2,80,0,win1,NULL,chris_item=winFiller_role=falsecontrol,no
1481061111,42b57ef064861754b6f5351e6e01bdf1,Form2,80,0,win1,NULL,_REACTION_TIME_,2251
1481061111,42b57ef064861754b6f5351e6e01bdf1,Form2,83,0,win4,NULL,amy_item=winFiller_role=truecontrolSE,yes
1481061111,42b57ef064861754b6f5351e6e01bdf1,Form2,83,0,win4,NULL,bob_item=winFiller_role=falsecontrol,no
1481061111,42b57ef064861754b6f5351e6e01bdf1,Form2,83,0,win4,NULL,chris_item=winFiller_role=UDtarget,yes
1481061111,42b57ef064861754b6f5351e6e01bdf1,Form2,83,0,win4,NULL,_REACTION_TIME_,3794
1481061111,42b57ef064861754b6f5351e6e01bdf1,Form2,46,0,ua7,NULL,amy_item=UA_role=truecontrolSE,yes
1481061111,42b57ef064861754b6f5351e6e01bdf1,Form2,46,0,ua7,NULL,bob_item=UA_role=target,no
1481061111,42b57ef064861754b6f5351e6e01bdf1,Form2,46,0,ua7,NULL,chris_item=UA_role=falsecontrol,no
1481061111,42b57ef064861754b6f5351e6e01bdf1,Form2,46,0,ua7,NULL,_REACTION_TIME_,2370
1481061111,42b57ef064861754b6f5351e6e01bdf1,Form2,40,0,ua1,NULL,amy_item=UA_role=target,no
1481061111,42b57ef064861754b6f5351e6e01bdf1,Form2,40,0,ua1,NULL,bob_item=UA_role=falsecontrol,no
1481061111,42b57ef064861754b6f5351e6e01bdf1,Form2,40,0,ua1,NULL,chris_item=UA_role=truecontrolSE,yes
1481061111,42b57ef064861754b6f5351e6e01bdf1,Form2,40,0,ua1,NULL,_REACTION_TIME_,3132
1481061111,42b57ef064861754b6f5351e6e01bdf1,Form2,24,0,oa5,NULL,amy_item=OA_role=target,yes
1481061111,42b57ef064861754b6f5351e6e01bdf1,Form2,24,0,oa5,NULL,bob_item=OA_role=falsecontrol,no
1481061111,42b57ef064861754b6f5351e6e01bdf1,Form2,24,0,oa5,NULL,chris_item=OA_role=truecontrolSE,yes
1481061111,42b57ef064861754b6f5351e6e01bdf1,Form2,24,0,oa5,NULL,_REACTION_TIME_,3123
1481061111,42b57ef064861754b6f5351e6e01bdf1,Form2,25,0,oa6,NULL,amy_item=OA_role=falsecontrol,no
1481061111,42b57ef064861754b6f5351e6e01bdf1,Form2,25,0,oa6,NULL,bob_item=OA_role=truecontrolSE,yes
1481061111,42b57ef064861754b6f5351e6e01bdf1,Form2,25,0,oa6,NULL,chris_item=OA_role=target,yes
1481061111,42b57ef064861754b6f5351e6e01bdf1,Form2,25,0,oa6,NULL,_REACTION_TIME_,2493
1481061111,42b57ef064861754b6f5351e6e01bdf1,Form2,69,0,sym0,NULL,amy_item=whichSymbolFiller_role=truecontrolSE,yes
1481061111,42b57ef064861754b6f5351e6e01bdf1,Form2,69,0,sym0,NULL,bob_item=whichSymbolFiller_role=UDtargetTrue,yes
1481061111,42b57ef064861754b6f5351e6e01bdf1,Form2,69,0,sym0,NULL,chris_item=whichSymbolFiller_role=falsecontrol,no
1481061111,42b57ef064861754b6f5351e6e01bdf1,Form2,69,0,sym0,NULL,_REACTION_TIME_,2466
1481061111,42b57ef064861754b6f5351e6e01bdf1,Form2,64,0,ppf15,NULL,amy_item=TrueTrueFalseFiller_role=false,no
1481061111,42b57ef064861754b6f5351e6e01bdf1,Form2,64,0,ppf15,NULL,bob_item=TrueTrueFalseFiller_role=trueSE,yes
1481061111,42b57ef064861754b6f5351e6e01bdf1,Form2,64,0,ppf15,NULL,chris_item=TrueTrueFalseFiller_role=truePerfect,yes
1481061111,42b57ef064861754b6f5351e6e01bdf1,Form2,64,0,ppf15,NULL,_REACTION_TIME_,4115
1481061111,42b57ef064861754b6f5351e6e01bdf1,Form2,60,0,ppf11,NULL,amy_item=TrueTrueFalseFiller_role=trueSE,yes
1481061111,42b57ef064861754b6f5351e6e01bdf1,Form2,60,0,ppf11,NULL,bob_item=TrueTrueFalseFiller_role=false,no
1481061111,42b57ef064861754b6f5351e6e01bdf1,Form2,60,0,ppf11,NULL,chris_item=TrueTrueFalseFiller_role=truePerfect,yes
1481061111,42b57ef064861754b6f5351e6e01bdf1,Form2,60,0,ppf11,NULL,_REACTION_TIME_,2067
1481061111,42b57ef064861754b6f5351e6e01bdf1,Form2,54,0,ppf5,NULL,amy_item=TrueTrueFalseFiller_role=trueSE,yes
1481061111,42b57ef064861754b6f5351e6e01bdf1,Form2,54,0,ppf5,NULL,bob_item=TrueTrueFalseFiller_role=truePerfect,yes
1481061111,42b57ef064861754b6f5351e6e01bdf1,Form2,54,0,ppf5,NULL,chris_item=TrueTrueFalseFiller_role=false,no
1481061111,42b57ef064861754b6f5351e6e01bdf1,Form2,54,0,ppf5,NULL,_REACTION_TIME_,2362
1481061111,42b57ef064861754b6f5351e6e01bdf1,Form2,77,0,sym8,NULL,amy_item=whichSymbolFiller_role=UDtargetTrue,yes
1481061111,42b57ef064861754b6f5351e6e01bdf1,Form2,77,0,sym8,NULL,bob_item=whichSymbolFiller_role=truecontrolSE,yes
1481061111,42b57ef064861754b6f5351e6e01bdf1,Form2,77,0,sym8,NULL,chris_item=whichSymbolFiller_role=falsecontrol,no
1481061111,42b57ef064861754b6f5351e6e01bdf1,Form2,77,0,sym8,NULL,_REACTION_TIME_,4808
1481061111,42b57ef064861754b6f5351e6e01bdf1,Form2,9,0,od0,NULL,amy_item=OD_role=truecontrolSE,yes
1481061111,42b57ef064861754b6f5351e6e01bdf1,Form2,9,0,od0,NULL,bob_item=OD_role=target,no
1481061111,42b57ef064861754b6f5351e6e01bdf1,Form2,9,0,od0,NULL,chris_item=OD_role=falsecontrol,no
1481061111,42b57ef064861754b6f5351e6e01bdf1,Form2,9,0,od0,NULL,_REACTION_TIME_,2767
1481061111,42b57ef064861754b6f5351e6e01bdf1,Form2,10,0,od1,NULL,amy_item=OD_role=truecontrolSE,yes
1481061111,42b57ef064861754b6f5351e6e01bdf1,Form2,10,0,od1,NULL,bob_item=OD_role=falsecontrol,no
1481061111,42b57ef064861754b6f5351e6e01bdf1,Form2,10,0,od1,NULL,chris_item=OD_role=target,no
1481061111,42b57ef064861754b6f5351e6e01bdf1,Form2,10,0,od1,NULL,_REACTION_TIME_,2757
1481061111,42b57ef064861754b6f5351e6e01bdf1,Form2,45,0,ua6,NULL,amy_item=UA_role=falsecontrol,no
1481061111,42b57ef064861754b6f5351e6e01bdf1,Form2,45,0,ua6,NULL,bob_item=UA_role=target,no
1481061111,42b57ef064861754b6f5351e6e01bdf1,Form2,45,0,ua6,NULL,chris_item=UA_role=truecontrolSE,yes
1481061111,42b57ef064861754b6f5351e6e01bdf1,Form2,45,0,ua6,NULL,_REACTION_TIME_,3399
1481061111,42b57ef064861754b6f5351e6e01bdf1,Form2,79,0,win0,NULL,amy_item=winFiller_role=truecontrolSE,yes
1481061111,42b57ef064861754b6f5351e6e01bdf1,Form2,79,0,win0,NULL,bob_item=winFiller_role=falsecontrol,no
1481061111,42b57ef064861754b6f5351e6e01bdf1,Form2,79,0,win0,NULL,chris_item=winFiller_role=UDtarget,yes
1481061111,42b57ef064861754b6f5351e6e01bdf1,Form2,79,0,win0,NULL,_REACTION_TIME_,3389
1481061111,42b57ef064861754b6f5351e6e01bdf1,Form2,67,0,ppf18,NULL,amy_item=TrueTrueFalseFiller_role=false,no
1481061111,42b57ef064861754b6f5351e6e01bdf1,Form2,67,0,ppf18,NULL,bob_item=TrueTrueFalseFiller_role=trueSE,yes
1481061111,42b57ef064861754b6f5351e6e01bdf1,Form2,67,0,ppf18,NULL,chris_item=TrueTrueFalseFiller_role=truePerfect,yes
1481061111,42b57ef064861754b6f5351e6e01bdf1,Form2,67,0,ppf18,NULL,_REACTION_TIME_,4400
1481061111,42b57ef064861754b6f5351e6e01bdf1,Form2,43,0,ua4,NULL,amy_item=UA_role=falsecontrol,no
1481061111,42b57ef064861754b6f5351e6e01bdf1,Form2,43,0,ua4,NULL,bob_item=UA_role=target,no
1481061111,42b57ef064861754b6f5351e6e01bdf1,Form2,43,0,ua4,NULL,chris_item=UA_role=truecontrolSE,yes
1481061111,42b57ef064861754b6f5351e6e01bdf1,Form2,43,0,ua4,NULL,_REACTION_TIME_,1976
1481061111,42b57ef064861754b6f5351e6e01bdf1,Form2,49,0,ppf0,NULL,amy_item=TrueTrueFalseFiller_role=truePerfect,yes
1481061111,42b57ef064861754b6f5351e6e01bdf1,Form2,49,0,ppf0,NULL,bob_item=TrueTrueFalseFiller_role=trueSE,yes
1481061111,42b57ef064861754b6f5351e6e01bdf1,Form2,49,0,ppf0,NULL,chris_item=TrueTrueFalseFiller_role=false,no
1481061111,42b57ef064861754b6f5351e6e01bdf1,Form2,49,0,ppf0,NULL,_REACTION_TIME_,2387
1481061111,42b57ef064861754b6f5351e6e01bdf1,Form2,29,0,ud0,NULL,amy_item=UD_role=target,yes
1481061111,42b57ef064861754b6f5351e6e01bdf1,Form2,29,0,ud0,NULL,bob_item=UD_role=falsecontrol,no
1481061111,42b57ef064861754b6f5351e6e01bdf1,Form2,29,0,ud0,NULL,chris_item=UD_role=truecontrolSE,yes
1481061111,42b57ef064861754b6f5351e6e01bdf1,Form2,29,0,ud0,NULL,_REACTION_TIME_,3544
1481061111,42b57ef064861754b6f5351e6e01bdf1,Form2,70,0,sym1,NULL,amy_item=whichSymbolFiller_role=falsecontrol,no
1481061111,42b57ef064861754b6f5351e6e01bdf1,Form2,70,0,sym1,NULL,bob_item=whichSymbolFiller_role=UDtargetTrue,yes
1481061111,42b57ef064861754b6f5351e6e01bdf1,Form2,70,0,sym1,NULL,chris_item=whichSymbolFiller_role=truecontrolSE,yes
1481061111,42b57ef064861754b6f5351e6e01bdf1,Form2,70,0,sym1,NULL,_REACTION_TIME_,3154
1481061111,42b57ef064861754b6f5351e6e01bdf1,Form2,74,0,sym5,NULL,amy_item=whichSymbolFiller_role=UDtargetTrue,yes
1481061111,42b57ef064861754b6f5351e6e01bdf1,Form2,74,0,sym5,NULL,bob_item=whichSymbolFiller_role=truecontrolSE,yes
1481061111,42b57ef064861754b6f5351e6e01bdf1,Form2,74,0,sym5,NULL,chris_item=whichSymbolFiller_role=falsecontrol,no
1481061111,42b57ef064861754b6f5351e6e01bdf1,Form2,74,0,sym5,NULL,_REACTION_TIME_,2733
1481061111,42b57ef064861754b6f5351e6e01bdf1,Form2,36,0,ud7,NULL,amy_item=UD_role=falsecontrol,no
1481061111,42b57ef064861754b6f5351e6e01bdf1,Form2,36,0,ud7,NULL,bob_item=UD_role=target,yes
1481061111,42b57ef064861754b6f5351e6e01bdf1,Form2,36,0,ud7,NULL,chris_item=UD_role=truecontrolSE,yes
1481061111,42b57ef064861754b6f5351e6e01bdf1,Form2,36,0,ud7,NULL,_REACTION_TIME_,2338
1481061111,42b57ef064861754b6f5351e6e01bdf1,Form2,44,0,ua5,NULL,amy_item=UA_role=falsecontrol,no
1481061111,42b57ef064861754b6f5351e6e01bdf1,Form2,44,0,ua5,NULL,bob_item=UA_role=truecontrolSE,yes
1481061111,42b57ef064861754b6f5351e6e01bdf1,Form2,44,0,ua5,NULL,chris_item=UA_role=target,no
1481061111,42b57ef064861754b6f5351e6e01bdf1,Form2,44,0,ua5,NULL,_REACTION_TIME_,1818
1481061111,42b57ef064861754b6f5351e6e01bdf1,Form2,12,0,od3,NULL,amy_item=OD_role=falsecontrol,no
1481061111,42b57ef064861754b6f5351e6e01bdf1,Form2,12,0,od3,NULL,bob_item=OD_role=truecontrolSE,yes
1481061111,42b57ef064861754b6f5351e6e01bdf1,Form2,12,0,od3,NULL,chris_item=OD_role=target,no
1481061111,42b57ef064861754b6f5351e6e01bdf1,Form2,12,0,od3,NULL,_REACTION_TIME_,2926
1481061111,42b57ef064861754b6f5351e6e01bdf1,Form2,87,0,lose3,NULL,amy_item=winFiller_role=UDtarget,yes
1481061111,42b57ef064861754b6f5351e6e01bdf1,Form2,87,0,lose3,NULL,bob_item=winFiller_role=falsecontrolSE,yes
1481061111,42b57ef064861754b6f5351e6e01bdf1,Form2,87,0,lose3,NULL,chris_item=winFiller_role=truecontrol,no
1481061111,42b57ef064861754b6f5351e6e01bdf1,Form2,87,0,lose3,NULL,_REACTION_TIME_,2602
1481061111,42b57ef064861754b6f5351e6e01bdf1,Form2,52,0,ppf3,NULL,amy_item=TrueTrueFalseFiller_role=truePerfect,yes
1481061111,42b57ef064861754b6f5351e6e01bdf1,Form2,52,0,ppf3,NULL,bob_item=TrueTrueFalseFiller_role=false,no
1481061111,42b57ef064861754b6f5351e6e01bdf1,Form2,52,0,ppf3,NULL,chris_item=TrueTrueFalseFiller_role=trueSE,yes
1481061111,42b57ef064861754b6f5351e6e01bdf1,Form2,52,0,ppf3,NULL,_REACTION_TIME_,2846
1481061111,42b57ef064861754b6f5351e6e01bdf1,Form2,56,0,ppf7,NULL,amy_item=TrueTrueFalseFiller_role=truePerfect,yes
1481061111,42b57ef064861754b6f5351e6e01bdf1,Form2,56,0,ppf7,NULL,bob_item=TrueTrueFalseFiller_role=false,no
1481061111,42b57ef064861754b6f5351e6e01bdf1,Form2,56,0,ppf7,NULL,chris_item=TrueTrueFalseFiller_role=trueSE,yes
1481061111,42b57ef064861754b6f5351e6e01bdf1,Form2,56,0,ppf7,NULL,_REACTION_TIME_,3464
1481061111,42b57ef064861754b6f5351e6e01bdf1,Form2,82,0,win3,NULL,amy_item=winFiller_role=falsecontrol,no
1481061111,42b57ef064861754b6f5351e6e01bdf1,Form2,82,0,win3,NULL,bob_item=winFiller_role=truecontrolSE,yes
1481061111,42b57ef064861754b6f5351e6e01bdf1,Form2,82,0,win3,NULL,chris_item=winFiller_role=UDtarget,yes
1481061111,42b57ef064861754b6f5351e6e01bdf1,Form2,82,0,win3,NULL,_REACTION_TIME_,2392
1481061111,42b57ef064861754b6f5351e6e01bdf1,Form2,18,0,od9,NULL,amy_item=OD_role=truecontrolSE,yes
1481061111,42b57ef064861754b6f5351e6e01bdf1,Form2,18,0,od9,NULL,bob_item=OD_role=target,no
1481061111,42b57ef064861754b6f5351e6e01bdf1,Form2,18,0,od9,NULL,chris_item=OD_role=falsecontrol,no
1481061111,42b57ef064861754b6f5351e6e01bdf1,Form2,18,0,od9,NULL,_REACTION_TIME_,2609
1481061111,42b57ef064861754b6f5351e6e01bdf1,Form2,22,0,oa3,NULL,amy_item=OA_role=truecontrolSE,yes
1481061111,42b57ef064861754b6f5351e6e01bdf1,Form2,22,0,oa3,NULL,bob_item=OA_role=target,yes
1481061111,42b57ef064861754b6f5351e6e01bdf1,Form2,22,0,oa3,NULL,chris_item=OA_role=falsecontrol,no
1481061111,42b57ef064861754b6f5351e6e01bdf1,Form2,22,0,oa3,NULL,_REACTION_TIME_,2999
1481061111,42b57ef064861754b6f5351e6e01bdf1,Form2,47,0,ua8,NULL,amy_item=UA_role=target,no
1481061111,42b57ef064861754b6f5351e6e01bdf1,Form2,47,0,ua8,NULL,bob_item=UA_role=falsecontrol,no
1481061111,42b57ef064861754b6f5351e6e01bdf1,Form2,47,0,ua8,NULL,chris_item=UA_role=truecontrolSE,yes
1481061111,42b57ef064861754b6f5351e6e01bdf1,Form2,47,0,ua8,NULL,_REACTION_TIME_,2737
1481061111,42b57ef064861754b6f5351e6e01bdf1,Form2,73,0,sym4,NULL,amy_item=whichSymbolFiller_role=falsecontrol,no
1481061111,42b57ef064861754b6f5351e6e01bdf1,Form2,73,0,sym4,NULL,bob_item=whichSymbolFiller_role=truecontrolSE,yes
1481061111,42b57ef064861754b6f5351e6e01bdf1,Form2,73,0,sym4,NULL,chris_item=whichSymbolFiller_role=UDtargetTrue,yes
1481061111,42b57ef064861754b6f5351e6e01bdf1,Form2,73,0,sym4,NULL,_REACTION_TIME_,2507
1481061111,42b57ef064861754b6f5351e6e01bdf1,Form2,20,0,oa1,NULL,amy_item=OA_role=falsecontrol,no
1481061111,42b57ef064861754b6f5351e6e01bdf1,Form2,20,0,oa1,NULL,bob_item=OA_role=truecontrolSE,yes
1481061111,42b57ef064861754b6f5351e6e01bdf1,Form2,20,0,oa1,NULL,chris_item=OA_role=target,yes
1481061111,42b57ef064861754b6f5351e6e01bdf1,Form2,20,0,oa1,NULL,_REACTION_TIME_,3003
1481061111,42b57ef064861754b6f5351e6e01bdf1,Form2,13,0,od4,NULL,amy_item=OD_role=target,no
1481061111,42b57ef064861754b6f5351e6e01bdf1,Form2,13,0,od4,NULL,bob_item=OD_role=truecontrolSE,yes
1481061111,42b57ef064861754b6f5351e6e01bdf1,Form2,13,0,od4,NULL,chris_item=OD_role=falsecontrol,no
1481061111,42b57ef064861754b6f5351e6e01bdf1,Form2,13,0,od4,NULL,_REACTION_TIME_,3851
1481061111,42b57ef064861754b6f5351e6e01bdf1,Form2,58,0,ppf9,NULL,amy_item=TrueTrueFalseFiller_role=false,no
1481061111,42b57ef064861754b6f5351e6e01bdf1,Form2,58,0,ppf9,NULL,bob_item=TrueTrueFalseFiller_role=trueSE,yes
1481061111,42b57ef064861754b6f5351e6e01bdf1,Form2,58,0,ppf9,NULL,chris_item=TrueTrueFalseFiller_role=truePerfect,yes
1481061111,42b57ef064861754b6f5351e6e01bdf1,Form2,58,0,ppf9,NULL,_REACTION_TIME_,3587
1481061111,42b57ef064861754b6f5351e6e01bdf1,Form2,33,0,ud4,NULL,amy_item=UD_role=truecontrolSE,yes
1481061111,42b57ef064861754b6f5351e6e01bdf1,Form2,33,0,ud4,NULL,bob_item=UD_role=target,yes
1481061111,42b57ef064861754b6f5351e6e01bdf1,Form2,33,0,ud4,NULL,chris_item=UD_role=falsecontrol,no
1481061111,42b57ef064861754b6f5351e6e01bdf1,Form2,33,0,ud4,NULL,_REACTION_TIME_,2427
1481061111,42b57ef064861754b6f5351e6e01bdf1,Form2,76,0,sym7,NULL,amy_item=whichSymbolFiller_role=UDtargetTrue,yes
1481061111,42b57ef064861754b6f5351e6e01bdf1,Form2,76,0,sym7,NULL,bob_item=whichSymbolFiller_role=truecontrolSE,yes
1481061111,42b57ef064861754b6f5351e6e01bdf1,Form2,76,0,sym7,NULL,chris_item=whichSymbolFiller_role=falsecontrol,no
1481061111,42b57ef064861754b6f5351e6e01bdf1,Form2,76,0,sym7,NULL,_REACTION_TIME_,2906
1481061111,42b57ef064861754b6f5351e6e01bdf1,Form2,16,0,od7,NULL,amy_item=OD_role=target,no
1481061111,42b57ef064861754b6f5351e6e01bdf1,Form2,16,0,od7,NULL,bob_item=OD_role=truecontrolSE,yes
1481061111,42b57ef064861754b6f5351e6e01bdf1,Form2,16,0,od7,NULL,chris_item=OD_role=falsecontrol,no
1481061111,42b57ef064861754b6f5351e6e01bdf1,Form2,16,0,od7,NULL,_REACTION_TIME_,2642
1481061111,42b57ef064861754b6f5351e6e01bdf1,Form2,61,0,ppf12,NULL,amy_item=TrueTrueFalseFiller_role=trueSE,yes
1481061111,42b57ef064861754b6f5351e6e01bdf1,Form2,61,0,ppf12,NULL,bob_item=TrueTrueFalseFiller_role=false,no
1481061111,42b57ef064861754b6f5351e6e01bdf1,Form2,61,0,ppf12,NULL,chris_item=TrueTrueFalseFiller_role=truePerfect,yes
1481061111,42b57ef064861754b6f5351e6e01bdf1,Form2,61,0,ppf12,NULL,_REACTION_TIME_,2997
1481061111,42b57ef064861754b6f5351e6e01bdf1,Form2,41,0,ua2,NULL,amy_item=UA_role=target,no
1481061111,42b57ef064861754b6f5351e6e01bdf1,Form2,41,0,ua2,NULL,bob_item=UA_role=truecontrolSE,yes
1481061111,42b57ef064861754b6f5351e6e01bdf1,Form2,41,0,ua2,NULL,chris_item=UA_role=falsecontrol,no
1481061111,42b57ef064861754b6f5351e6e01bdf1,Form2,41,0,ua2,NULL,_REACTION_TIME_,1621
1481061111,42b57ef064861754b6f5351e6e01bdf1,Form2,39,0,ua0,NULL,amy_item=UA_role=target,no
1481061111,42b57ef064861754b6f5351e6e01bdf1,Form2,39,0,ua0,NULL,bob_item=UA_role=falsecontrol,no
1481061111,42b57ef064861754b6f5351e6e01bdf1,Form2,39,0,ua0,NULL,chris_item=UA_role=truecontrolSE,yes
1481061111,42b57ef064861754b6f5351e6e01bdf1,Form2,39,0,ua0,NULL,_REACTION_TIME_,2229
1481061111,42b57ef064861754b6f5351e6e01bdf1,Form2,68,0,ppf19,NULL,amy_item=TrueTrueFalseFiller_role=false,no
1481061111,42b57ef064861754b6f5351e6e01bdf1,Form2,68,0,ppf19,NULL,bob_item=TrueTrueFalseFiller_role=truePerfect,yes
1481061111,42b57ef064861754b6f5351e6e01bdf1,Form2,68,0,ppf19,NULL,chris_item=TrueTrueFalseFiller_role=trueSE,yes
1481061111,42b57ef064861754b6f5351e6e01bdf1,Form2,68,0,ppf19,NULL,_REACTION_TIME_,4664
1481061111,42b57ef064861754b6f5351e6e01bdf1,Form2,59,0,ppf10,NULL,amy_item=TrueTrueFalseFiller_role=trueSE,yes
1481061111,42b57ef064861754b6f5351e6e01bdf1,Form2,59,0,ppf10,NULL,bob_item=TrueTrueFalseFiller_role=truePerfect,yes
1481061111,42b57ef064861754b6f5351e6e01bdf1,Form2,59,0,ppf10,NULL,chris_item=TrueTrueFalseFiller_role=false,no
1481061111,42b57ef064861754b6f5351e6e01bdf1,Form2,59,0,ppf10,NULL,_REACTION_TIME_,1730
1481061111,42b57ef064861754b6f5351e6e01bdf1,Form2,31,0,ud2,NULL,amy_item=UD_role=falsecontrol,no
1481061111,42b57ef064861754b6f5351e6e01bdf1,Form2,31,0,ud2,NULL,bob_item=UD_role=target,yes
1481061111,42b57ef064861754b6f5351e6e01bdf1,Form2,31,0,ud2,NULL,chris_item=UD_role=truecontrolSE,yes
1481061111,42b57ef064861754b6f5351e6e01bdf1,Form2,31,0,ud2,NULL,_REACTION_TIME_,1687
1481061111,42b57ef064861754b6f5351e6e01bdf1,Form2,17,0,od8,NULL,amy_item=OD_role=target,no
1481061111,42b57ef064861754b6f5351e6e01bdf1,Form2,17,0,od8,NULL,bob_item=OD_role=falsecontrol,no
1481061111,42b57ef064861754b6f5351e6e01bdf1,Form2,17,0,od8,NULL,chris_item=OD_role=truecontrolSE,yes
1481061111,42b57ef064861754b6f5351e6e01bdf1,Form2,17,0,od8,NULL,_REACTION_TIME_,1537
1481061111,42b57ef064861754b6f5351e6e01bdf1,Form2,65,0,ppf16,NULL,amy_item=TrueTrueFalseFiller_role=trueSE,yes
1481061111,42b57ef064861754b6f5351e6e01bdf1,Form2,65,0,ppf16,NULL,bob_item=TrueTrueFalseFiller_role=false,no
1481061111,42b57ef064861754b6f5351e6e01bdf1,Form2,65,0,ppf16,NULL,chris_item=TrueTrueFalseFiller_role=truePerfect,yes
1481061111,42b57ef064861754b6f5351e6e01bdf1,Form2,65,0,ppf16,NULL,_REACTION_TIME_,2178
1481061111,42b57ef064861754b6f5351e6e01bdf1,Form2,27,0,oa8,NULL,amy_item=OA_role=falsecontrol,no
1481061111,42b57ef064861754b6f5351e6e01bdf1,Form2,27,0,oa8,NULL,bob_item=OA_role=target,yes
1481061111,42b57ef064861754b6f5351e6e01bdf1,Form2,27,0,oa8,NULL,chris_item=OA_role=truecontrolSE,yes
1481061111,42b57ef064861754b6f5351e6e01bdf1,Form2,27,0,oa8,NULL,_REACTION_TIME_,2042
1481061111,42b57ef064861754b6f5351e6e01bdf1,Form2,35,0,ud6,NULL,amy_item=UD_role=truecontrolSE,yes
1481061111,42b57ef064861754b6f5351e6e01bdf1,Form2,35,0,ud6,NULL,bob_item=UD_role=falsecontrol,no
1481061111,42b57ef064861754b6f5351e6e01bdf1,Form2,35,0,ud6,NULL,chris_item=UD_role=target,yes
1481061111,42b57ef064861754b6f5351e6e01bdf1,Form2,35,0,ud6,NULL,_REACTION_TIME_,1726
1481061111,42b57ef064861754b6f5351e6e01bdf1,Form2,30,0,ud1,NULL,amy_item=UD_role=falsecontrol,no
1481061111,42b57ef064861754b6f5351e6e01bdf1,Form2,30,0,ud1,NULL,bob_item=UD_role=target,yes
1481061111,42b57ef064861754b6f5351e6e01bdf1,Form2,30,0,ud1,NULL,chris_item=UD_role=truecontrolSE,yes
1481061111,42b57ef064861754b6f5351e6e01bdf1,Form2,30,0,ud1,NULL,_REACTION_TIME_,1408
1481061111,42b57ef064861754b6f5351e6e01bdf1,Form2,63,0,ppf14,NULL,amy_item=TrueTrueFalseFiller_role=trueSE,yes
1481061111,42b57ef064861754b6f5351e6e01bdf1,Form2,63,0,ppf14,NULL,bob_item=TrueTrueFalseFiller_role=false,no
1481061111,42b57ef064861754b6f5351e6e01bdf1,Form2,63,0,ppf14,NULL,chris_item=TrueTrueFalseFiller_role=truePerfect,yes
1481061111,42b57ef064861754b6f5351e6e01bdf1,Form2,63,0,ppf14,NULL,_REACTION_TIME_,1883
1481061111,42b57ef064861754b6f5351e6e01bdf1,Form2,88,0,lose4,NULL,amy_item=winFiller_role=UDtarget,yes
1481061111,42b57ef064861754b6f5351e6e01bdf1,Form2,88,0,lose4,NULL,bob_item=winFiller_role=truecontrol,no
1481061111,42b57ef064861754b6f5351e6e01bdf1,Form2,88,0,lose4,NULL,chris_item=winFiller_role=falsecontrolSE,yes
1481061111,42b57ef064861754b6f5351e6e01bdf1,Form2,88,0,lose4,NULL,_REACTION_TIME_,1586
1481061111,42b57ef064861754b6f5351e6e01bdf1,Form2,38,0,ud9,NULL,amy_item=UD_role=target,yes
1481061111,42b57ef064861754b6f5351e6e01bdf1,Form2,38,0,ud9,NULL,bob_item=UD_role=falsecontrol,no
1481061111,42b57ef064861754b6f5351e6e01bdf1,Form2,38,0,ud9,NULL,chris_item=UD_role=truecontrolSE,yes
1481061111,42b57ef064861754b6f5351e6e01bdf1,Form2,38,0,ud9,NULL,_REACTION_TIME_,1362
1481061111,42b57ef064861754b6f5351e6e01bdf1,Form2,23,0,oa4,NULL,amy_item=OA_role=falsecontrol,no
1481061111,42b57ef064861754b6f5351e6e01bdf1,Form2,23,0,oa4,NULL,bob_item=OA_role=truecontrolSE,yes
1481061111,42b57ef064861754b6f5351e6e01bdf1,Form2,23,0,oa4,NULL,chris_item=OA_role=target,yes
1481061111,42b57ef064861754b6f5351e6e01bdf1,Form2,23,0,oa4,NULL,_REACTION_TIME_,1398
1481061111,42b57ef064861754b6f5351e6e01bdf1,Form2,84,0,lose0,NULL,amy_item=winFiller_role=truecontrol,no
1481061111,42b57ef064861754b6f5351e6e01bdf1,Form2,84,0,lose0,NULL,bob_item=winFiller_role=UDtarget,yes
1481061111,42b57ef064861754b6f5351e6e01bdf1,Form2,84,0,lose0,NULL,chris_item=winFiller_role=falsecontrolSE,yes
1481061111,42b57ef064861754b6f5351e6e01bdf1,Form2,84,0,lose0,NULL,_REACTION_TIME_,1204
1481061111,42b57ef064861754b6f5351e6e01bdf1,Form2,26,0,oa7,NULL,amy_item=OA_role=target,yes
1481061111,42b57ef064861754b6f5351e6e01bdf1,Form2,26,0,oa7,NULL,bob_item=OA_role=truecontrolSE,yes
1481061111,42b57ef064861754b6f5351e6e01bdf1,Form2,26,0,oa7,NULL,chris_item=OA_role=falsecontrol,no
1481061111,42b57ef064861754b6f5351e6e01bdf1,Form2,26,0,oa7,NULL,_REACTION_TIME_,2771
1481061111,42b57ef064861754b6f5351e6e01bdf1,Form2,66,0,ppf17,NULL,amy_item=TrueTrueFalseFiller_role=false,no
1481061111,42b57ef064861754b6f5351e6e01bdf1,Form2,66,0,ppf17,NULL,bob_item=TrueTrueFalseFiller_role=trueSE,yes
1481061111,42b57ef064861754b6f5351e6e01bdf1,Form2,66,0,ppf17,NULL,chris_item=TrueTrueFalseFiller_role=truePerfect,yes
1481061111,42b57ef064861754b6f5351e6e01bdf1,Form2,66,0,ppf17,NULL,_REACTION_TIME_,1710
1481061111,42b57ef064861754b6f5351e6e01bdf1,Form,3,0,questionnaire,NULL,age,24
1481061111,42b57ef064861754b6f5351e6e01bdf1,Form,3,0,questionnaire,NULL,language,english
1481061111,42b57ef064861754b6f5351e6e01bdf1,Form,3,0,questionnaire,NULL,mturkid,A13FXMMPTZUVRP
1481061111,42b57ef064861754b6f5351e6e01bdf1,Form,3,0,questionnaire,NULL,_REACTION_TIME_,16280
#
# Results on Tuesday December 06 2016 21:53:15 UTC.
# USER AGENT: Mozilla/5.0 (Windows NT 6.3; WOW64) AppleWebKit/537.36 (KHTML, like Gecko) Chrome/54.0.2840.99 Safari/537.36
# Design number was non-random = 0
#
# Columns below this comment are as follows:
# 1. Time results were received.
# 2. MD5 hash of participant's IP address.
# 3. Controller name.
# 4. Item number.
# 5. Element number.
# 6. Type.
# 7. Group.
# 8. Field name.
# 9. Field value.
1481061195,2bcad7441d4e918c0f1800d254507402,Form,1,0,instructions,NULL,,no
1481061195,2bcad7441d4e918c0f1800d254507402,Form,1,0,instructions,NULL,,no
1481061195,2bcad7441d4e918c0f1800d254507402,Form,1,0,instructions,NULL,,no
1481061195,2bcad7441d4e918c0f1800d254507402,Form,1,0,instructions,NULL,,no
1481061195,2bcad7441d4e918c0f1800d254507402,Form,1,0,instructions,NULL,,no
1481061195,2bcad7441d4e918c0f1800d254507402,Form,1,0,instructions,NULL,,no
1481061195,2bcad7441d4e918c0f1800d254507402,Form,1,0,instructions,NULL,,no
1481061195,2bcad7441d4e918c0f1800d254507402,Form,1,0,instructions,NULL,,no
1481061195,2bcad7441d4e918c0f1800d254507402,Form,1,0,instructions,NULL,,no
1481061195,2bcad7441d4e918c0f1800d254507402,Form,1,0,instructions,NULL,,no
1481061195,2bcad7441d4e918c0f1800d254507402,Form,1,0,instructions,NULL,,no
1481061195,2bcad7441d4e918c0f1800d254507402,Form,1,0,instructions,NULL,,no
1481061195,2bcad7441d4e918c0f1800d254507402,Form,1,0,instructions,NULL,_REACTION_TIME_,57862
1481061195,2bcad7441d4e918c0f1800d254507402,Form2,4,0,training1,NULL,,yes
1481061195,2bcad7441d4e918c0f1800d254507402,Form2,4,0,training1,NULL,,no
1481061195,2bcad7441d4e918c0f1800d254507402,Form2,4,0,training1,NULL,,yes
1481061195,2bcad7441d4e918c0f1800d254507402,Form2,4,0,training1,NULL,_REACTION_TIME_,8174
1481061195,2bcad7441d4e918c0f1800d254507402,Form2,5,0,training2,NULL,,yes
1481061195,2bcad7441d4e918c0f1800d254507402,Form2,5,0,training2,NULL,,yes
1481061195,2bcad7441d4e918c0f1800d254507402,Form2,5,0,training2,NULL,,no
1481061195,2bcad7441d4e918c0f1800d254507402,Form2,5,0,training2,NULL,_REACTION_TIME_,3857
1481061195,2bcad7441d4e918c0f1800d254507402,Form2,6,0,training3,NULL,,no
1481061195,2bcad7441d4e918c0f1800d254507402,Form2,6,0,training3,NULL,,no
1481061195,2bcad7441d4e918c0f1800d254507402,Form2,6,0,training3,NULL,,yes
1481061195,2bcad7441d4e918c0f1800d254507402,Form2,6,0,training3,NULL,_REACTION_TIME_,7507
1481061195,2bcad7441d4e918c0f1800d254507402,Form2,7,0,training4,NULL,,yes
1481061195,2bcad7441d4e918c0f1800d254507402,Form2,7,0,training4,NULL,,yes
1481061195,2bcad7441d4e918c0f1800d254507402,Form2,7,0,training4,NULL,,no
1481061195,2bcad7441d4e918c0f1800d254507402,Form2,7,0,training4,NULL,_REACTION_TIME_,3745
1481061195,2bcad7441d4e918c0f1800d254507402,Form2,8,0,training5,NULL,,no
1481061195,2bcad7441d4e918c0f1800d254507402,Form2,8,0,training5,NULL,,no
1481061195,2bcad7441d4e918c0f1800d254507402,Form2,8,0,training5,NULL,,yes
1481061195,2bcad7441d4e918c0f1800d254507402,Form2,8,0,training5,NULL,_REACTION_TIME_,3593
1481061195,2bcad7441d4e918c0f1800d254507402,Form2,24,0,oa5,NULL,amy_item=OA_role=target,yes
1481061195,2bcad7441d4e918c0f1800d254507402,Form2,24,0,oa5,NULL,bob_item=OA_role=falsecontrol,no
1481061195,2bcad7441d4e918c0f1800d254507402,Form2,24,0,oa5,NULL,chris_item=OA_role=truecontrolSE,yes
1481061195,2bcad7441d4e918c0f1800d254507402,Form2,24,0,oa5,NULL,_REACTION_TIME_,5683
1481061195,2bcad7441d4e918c0f1800d254507402,Form2,52,0,ppf3,NULL,amy_item=TrueTrueFalseFiller_role=truePerfect,yes
1481061195,2bcad7441d4e918c0f1800d254507402,Form2,52,0,ppf3,NULL,bob_item=TrueTrueFalseFiller_role=false,no
1481061195,2bcad7441d4e918c0f1800d254507402,Form2,52,0,ppf3,NULL,chris_item=TrueTrueFalseFiller_role=trueSE,yes
1481061195,2bcad7441d4e918c0f1800d254507402,Form2,52,0,ppf3,NULL,_REACTION_TIME_,4398
1481061195,2bcad7441d4e918c0f1800d254507402,Form2,45,0,ua6,NULL,amy_item=UA_role=falsecontrol,no
1481061195,2bcad7441d4e918c0f1800d254507402,Form2,45,0,ua6,NULL,bob_item=UA_role=target,no
1481061195,2bcad7441d4e918c0f1800d254507402,Form2,45,0,ua6,NULL,chris_item=UA_role=truecontrolSE,yes
1481061195,2bcad7441d4e918c0f1800d254507402,Form2,45,0,ua6,NULL,_REACTION_TIME_,8346
1481061195,2bcad7441d4e918c0f1800d254507402,Form2,87,0,lose3,NULL,amy_item=winFiller_role=UDtarget,yes
1481061195,2bcad7441d4e918c0f1800d254507402,Form2,87,0,lose3,NULL,bob_item=winFiller_role=falsecontrolSE,yes
1481061195,2bcad7441d4e918c0f1800d254507402,Form2,87,0,lose3,NULL,chris_item=winFiller_role=truecontrol,no
1481061195,2bcad7441d4e918c0f1800d254507402,Form2,87,0,lose3,NULL,_REACTION_TIME_,3457
1481061195,2bcad7441d4e918c0f1800d254507402,Form2,73,0,sym4,NULL,amy_item=whichSymbolFiller_role=falsecontrol,no
1481061195,2bcad7441d4e918c0f1800d254507402,Form2,73,0,sym4,NULL,bob_item=whichSymbolFiller_role=truecontrolSE,yes
1481061195,2bcad7441d4e918c0f1800d254507402,Form2,73,0,sym4,NULL,chris_item=whichSymbolFiller_role=UDtargetTrue,yes
1481061195,2bcad7441d4e918c0f1800d254507402,Form2,73,0,sym4,NULL,_REACTION_TIME_,5058
1481061195,2bcad7441d4e918c0f1800d254507402,Form2,35,0,ud6,NULL,amy_item=UD_role=truecontrolSE,yes
1481061195,2bcad7441d4e918c0f1800d254507402,Form2,35,0,ud6,NULL,bob_item=UD_role=falsecontrol,no
1481061195,2bcad7441d4e918c0f1800d254507402,Form2,35,0,ud6,NULL,chris_item=UD_role=target,yes
1481061195,2bcad7441d4e918c0f1800d254507402,Form2,35,0,ud6,NULL,_REACTION_TIME_,3004
1481061195,2bcad7441d4e918c0f1800d254507402,Form2,37,0,ud8,NULL,amy_item=UD_role=truecontrolSE,yes
1481061195,2bcad7441d4e918c0f1800d254507402,Form2,37,0,ud8,NULL,bob_item=UD_role=target,yes
1481061195,2bcad7441d4e918c0f1800d254507402,Form2,37,0,ud8,NULL,chris_item=UD_role=falsecontrol,no
1481061195,2bcad7441d4e918c0f1800d254507402,Form2,37,0,ud8,NULL,_REACTION_TIME_,3031
1481061195,2bcad7441d4e918c0f1800d254507402,Form2,88,0,lose4,NULL,amy_item=winFiller_role=UDtarget,yes
1481061195,2bcad7441d4e918c0f1800d254507402,Form2,88,0,lose4,NULL,bob_item=winFiller_role=truecontrol,no
1481061195,2bcad7441d4e918c0f1800d254507402,Form2,88,0,lose4,NULL,chris_item=winFiller_role=falsecontrolSE,yes
1481061195,2bcad7441d4e918c0f1800d254507402,Form2,88,0,lose4,NULL,_REACTION_TIME_,3279
1481061195,2bcad7441d4e918c0f1800d254507402,Form2,75,0,sym6,NULL,amy_item=whichSymbolFiller_role=falsecontrol,no
1481061195,2bcad7441d4e918c0f1800d254507402,Form2,75,0,sym6,NULL,bob_item=whichSymbolFiller_role=UDtargetTrue,yes
1481061195,2bcad7441d4e918c0f1800d254507402,Form2,75,0,sym6,NULL,chris_item=whichSymbolFiller_role=truecontrolSE,yes
1481061195,2bcad7441d4e918c0f1800d254507402,Form2,75,0,sym6,NULL,_REACTION_TIME_,3231
1481061195,2bcad7441d4e918c0f1800d254507402,Form2,60,0,ppf11,NULL,amy_item=TrueTrueFalseFiller_role=trueSE,yes
1481061195,2bcad7441d4e918c0f1800d254507402,Form2,60,0,ppf11,NULL,bob_item=TrueTrueFalseFiller_role=false,no
1481061195,2bcad7441d4e918c0f1800d254507402,Form2,60,0,ppf11,NULL,chris_item=TrueTrueFalseFiller_role=truePerfect,yes
1481061195,2bcad7441d4e918c0f1800d254507402,Form2,60,0,ppf11,NULL,_REACTION_TIME_,2683
1481061195,2bcad7441d4e918c0f1800d254507402,Form2,80,0,win1,NULL,amy_item=winFiller_role=truecontrolSE,yes
1481061195,2bcad7441d4e918c0f1800d254507402,Form2,80,0,win1,NULL,bob_item=winFiller_role=UDtarget,yes
1481061195,2bcad7441d4e918c0f1800d254507402,Form2,80,0,win1,NULL,chris_item=winFiller_role=falsecontrol,no
1481061195,2bcad7441d4e918c0f1800d254507402,Form2,80,0,win1,NULL,_REACTION_TIME_,2756
1481061195,2bcad7441d4e918c0f1800d254507402,Form2,72,0,sym3,NULL,amy_item=whichSymbolFiller_role=falsecontrol,no
1481061195,2bcad7441d4e918c0f1800d254507402,Form2,72,0,sym3,NULL,bob_item=whichSymbolFiller_role=truecontrolSE,yes
1481061195,2bcad7441d4e918c0f1800d254507402,Form2,72,0,sym3,NULL,chris_item=whichSymbolFiller_role=UDtargetTrue,yes
1481061195,2bcad7441d4e918c0f1800d254507402,Form2,72,0,sym3,NULL,_REACTION_TIME_,3289
1481061195,2bcad7441d4e918c0f1800d254507402,Form2,19,0,oa0,NULL,amy_item=OA_role=target,no
1481061195,2bcad7441d4e918c0f1800d254507402,Form2,19,0,oa0,NULL,bob_item=OA_role=falsecontrol,no
1481061195,2bcad7441d4e918c0f1800d254507402,Form2,19,0,oa0,NULL,chris_item=OA_role=truecontrolSE,yes
1481061195,2bcad7441d4e918c0f1800d254507402,Form2,19,0,oa0,NULL,_REACTION_TIME_,3165
1481061195,2bcad7441d4e918c0f1800d254507402,Form2,32,0,ud3,NULL,amy_item=UD_role=truecontrolSE,yes
1481061195,2bcad7441d4e918c0f1800d254507402,Form2,32,0,ud3,NULL,bob_item=UD_role=target,yes
1481061195,2bcad7441d4e918c0f1800d254507402,Form2,32,0,ud3,NULL,chris_item=UD_role=falsecontrol,no
1481061195,2bcad7441d4e918c0f1800d254507402,Form2,32,0,ud3,NULL,_REACTION_TIME_,2681
1481061195,2bcad7441d4e918c0f1800d254507402,Form2,39,0,ua0,NULL,amy_item=UA_role=target,no
1481061195,2bcad7441d4e918c0f1800d254507402,Form2,39,0,ua0,NULL,bob_item=UA_role=falsecontrol,no
1481061195,2bcad7441d4e918c0f1800d254507402,Form2,39,0,ua0,NULL,chris_item=UA_role=truecontrolSE,yes
1481061195,2bcad7441d4e918c0f1800d254507402,Form2,39,0,ua0,NULL,_REACTION_TIME_,3006
1481061195,2bcad7441d4e918c0f1800d254507402,Form2,55,0,ppf6,NULL,amy_item=TrueTrueFalseFiller_role=truePerfect,yes
1481061195,2bcad7441d4e918c0f1800d254507402,Form2,55,0,ppf6,NULL,bob_item=TrueTrueFalseFiller_role=false,no
1481061195,2bcad7441d4e918c0f1800d254507402,Form2,55,0,ppf6,NULL,chris_item=TrueTrueFalseFiller_role=trueSE,yes
1481061195,2bcad7441d4e918c0f1800d254507402,Form2,55,0,ppf6,NULL,_REACTION_TIME_,3879
1481061195,2bcad7441d4e918c0f1800d254507402,Form2,9,0,od0,NULL,amy_item=OD_role=truecontrolSE,yes
1481061195,2bcad7441d4e918c0f1800d254507402,Form2,9,0,od0,NULL,bob_item=OD_role=target,no
1481061195,2bcad7441d4e918c0f1800d254507402,Form2,9,0,od0,NULL,chris_item=OD_role=falsecontrol,no
1481061195,2bcad7441d4e918c0f1800d254507402,Form2,9,0,od0,NULL,_REACTION_TIME_,3028
1481061195,2bcad7441d4e918c0f1800d254507402,Form2,38,0,ud9,NULL,amy_item=UD_role=target,yes
1481061195,2bcad7441d4e918c0f1800d254507402,Form2,38,0,ud9,NULL,bob_item=UD_role=falsecontrol,no
1481061195,2bcad7441d4e918c0f1800d254507402,Form2,38,0,ud9,NULL,chris_item=UD_role=truecontrolSE,yes
1481061195,2bcad7441d4e918c0f1800d254507402,Form2,38,0,ud9,NULL,_REACTION_TIME_,3352
1481061195,2bcad7441d4e918c0f1800d254507402,Form2,69,0,sym0,NULL,amy_item=whichSymbolFiller_role=truecontrolSE,yes
1481061195,2bcad7441d4e918c0f1800d254507402,Form2,69,0,sym0,NULL,bob_item=whichSymbolFiller_role=UDtargetTrue,yes
1481061195,2bcad7441d4e918c0f1800d254507402,Form2,69,0,sym0,NULL,chris_item=whichSymbolFiller_role=falsecontrol,no
1481061195,2bcad7441d4e918c0f1800d254507402,Form2,69,0,sym0,NULL,_REACTION_TIME_,2679
1481061195,2bcad7441d4e918c0f1800d254507402,Form2,64,0,ppf15,NULL,amy_item=TrueTrueFalseFiller_role=false,no
1481061195,2bcad7441d4e918c0f1800d254507402,Form2,64,0,ppf15,NULL,bob_item=TrueTrueFalseFiller_role=trueSE,yes
1481061195,2bcad7441d4e918c0f1800d254507402,Form2,64,0,ppf15,NULL,chris_item=TrueTrueFalseFiller_role=truePerfect,yes
1481061195,2bcad7441d4e918c0f1800d254507402,Form2,64,0,ppf15,NULL,_REACTION_TIME_,2987
1481061195,2bcad7441d4e918c0f1800d254507402,Form2,10,0,od1,NULL,amy_item=OD_role=truecontrolSE,yes
1481061195,2bcad7441d4e918c0f1800d254507402,Form2,10,0,od1,NULL,bob_item=OD_role=falsecontrol,no
1481061195,2bcad7441d4e918c0f1800d254507402,Form2,10,0,od1,NULL,chris_item=OD_role=target,no
1481061195,2bcad7441d4e918c0f1800d254507402,Form2,10,0,od1,NULL,_REACTION_TIME_,3179
1481061195,2bcad7441d4e918c0f1800d254507402,Form2,51,0,ppf2,NULL,amy_item=TrueTrueFalseFiller_role=false,no
1481061195,2bcad7441d4e918c0f1800d254507402,Form2,51,0,ppf2,NULL,bob_item=TrueTrueFalseFiller_role=truePerfect,yes
1481061195,2bcad7441d4e918c0f1800d254507402,Form2,51,0,ppf2,NULL,chris_item=TrueTrueFalseFiller_role=trueSE,yes
1481061195,2bcad7441d4e918c0f1800d254507402,Form2,51,0,ppf2,NULL,_REACTION_TIME_,2211
1481061195,2bcad7441d4e918c0f1800d254507402,Form2,77,0,sym8,NULL,amy_item=whichSymbolFiller_role=UDtargetTrue,yes
1481061195,2bcad7441d4e918c0f1800d254507402,Form2,77,0,sym8,NULL,bob_item=whichSymbolFiller_role=truecontrolSE,yes
1481061195,2bcad7441d4e918c0f1800d254507402,Form2,77,0,sym8,NULL,chris_item=whichSymbolFiller_role=falsecontrol,no
1481061195,2bcad7441d4e918c0f1800d254507402,Form2,77,0,sym8,NULL,_REACTION_TIME_,3034
1481061195,2bcad7441d4e918c0f1800d254507402,Form2,86,0,lose2,NULL,amy_item=winFiller_role=falsecontrolSE,yes
1481061195,2bcad7441d4e918c0f1800d254507402,Form2,86,0,lose2,NULL,bob_item=winFiller_role=UDtarget,yes
1481061195,2bcad7441d4e918c0f1800d254507402,Form2,86,0,lose2,NULL,chris_item=winFiller_role=truecontrol,no
1481061195,2bcad7441d4e918c0f1800d254507402,Form2,86,0,lose2,NULL,_REACTION_TIME_,5124
1481061195,2bcad7441d4e918c0f1800d254507402,Form2,58,0,ppf9,NULL,amy_item=TrueTrueFalseFiller_role=false,no
1481061195,2bcad7441d4e918c0f1800d254507402,Form2,58,0,ppf9,NULL,bob_item=TrueTrueFalseFiller_role=trueSE,yes
1481061195,2bcad7441d4e918c0f1800d254507402,Form2,58,0,ppf9,NULL,chris_item=TrueTrueFalseFiller_role=truePerfect,yes
1481061195,2bcad7441d4e918c0f1800d254507402,Form2,58,0,ppf9,NULL,_REACTION_TIME_,1962
1481061195,2bcad7441d4e918c0f1800d254507402,Form2,31,0,ud2,NULL,amy_item=UD_role=falsecontrol,no
1481061195,2bcad7441d4e918c0f1800d254507402,Form2,31,0,ud2,NULL,bob_item=UD_role=target,yes
1481061195,2bcad7441d4e918c0f1800d254507402,Form2,31,0,ud2,NULL,chris_item=UD_role=truecontrolSE,yes
1481061195,2bcad7441d4e918c0f1800d254507402,Form2,31,0,ud2,NULL,_REACTION_TIME_,2051
1481061195,2bcad7441d4e918c0f1800d254507402,Form2,27,0,oa8,NULL,amy_item=OA_role=falsecontrol,no
1481061195,2bcad7441d4e918c0f1800d254507402,Form2,27,0,oa8,NULL,bob_item=OA_role=target,yes
1481061195,2bcad7441d4e918c0f1800d254507402,Form2,27,0,oa8,NULL,chris_item=OA_role=truecontrolSE,yes
1481061195,2bcad7441d4e918c0f1800d254507402,Form2,27,0,oa8,NULL,_REACTION_TIME_,2875
1481061195,2bcad7441d4e918c0f1800d254507402,Form2,85,0,lose1,NULL,amy_item=winFiller_role=UDtarget,yes
1481061195,2bcad7441d4e918c0f1800d254507402,Form2,85,0,lose1,NULL,bob_item=winFiller_role=falsecontrolSE,yes
1481061195,2bcad7441d4e918c0f1800d254507402,Form2,85,0,lose1,NULL,chris_item=winFiller_role=truecontrol,no
1481061195,2bcad7441d4e918c0f1800d254507402,Form2,85,0,lose1,NULL,_REACTION_TIME_,2944
1481061195,2bcad7441d4e918c0f1800d254507402,Form2,50,0,ppf1,NULL,amy_item=TrueTrueFalseFiller_role=false,no
1481061195,2bcad7441d4e918c0f1800d254507402,Form2,50,0,ppf1,NULL,bob_item=TrueTrueFalseFiller_role=truePerfect,yes
1481061195,2bcad7441d4e918c0f1800d254507402,Form2,50,0,ppf1,NULL,chris_item=TrueTrueFalseFiller_role=trueSE,yes
1481061195,2bcad7441d4e918c0f1800d254507402,Form2,50,0,ppf1,NULL,_REACTION_TIME_,2291
1481061195,2bcad7441d4e918c0f1800d254507402,Form2,70,0,sym1,NULL,amy_item=whichSymbolFiller_role=falsecontrol,no
1481061195,2bcad7441d4e918c0f1800d254507402,Form2,70,0,sym1,NULL,bob_item=whichSymbolFiller_role=UDtargetTrue,yes
1481061195,2bcad7441d4e918c0f1800d254507402,Form2,70,0,sym1,NULL,chris_item=whichSymbolFiller_role=truecontrolSE,yes
1481061195,2bcad7441d4e918c0f1800d254507402,Form2,70,0,sym1,NULL,_REACTION_TIME_,2190
1481061195,2bcad7441d4e918c0f1800d254507402,Form2,30,0,ud1,NULL,amy_item=UD_role=falsecontrol,no
1481061195,2bcad7441d4e918c0f1800d254507402,Form2,30,0,ud1,NULL,bob_item=UD_role=target,yes
1481061195,2bcad7441d4e918c0f1800d254507402,Form2,30,0,ud1,NULL,chris_item=UD_role=truecontrolSE,yes
1481061195,2bcad7441d4e918c0f1800d254507402,Form2,30,0,ud1,NULL,_REACTION_TIME_,2344
1481061195,2bcad7441d4e918c0f1800d254507402,Form2,46,0,ua7,NULL,amy_item=UA_role=truecontrolSE,yes
1481061195,2bcad7441d4e918c0f1800d254507402,Form2,46,0,ua7,NULL,bob_item=UA_role=target,no
1481061195,2bcad7441d4e918c0f1800d254507402,Form2,46,0,ua7,NULL,chris_item=UA_role=falsecontrol,no
1481061195,2bcad7441d4e918c0f1800d254507402,Form2,46,0,ua7,NULL,_REACTION_TIME_,2671
1481061195,2bcad7441d4e918c0f1800d254507402,Form2,26,0,oa7,NULL,amy_item=OA_role=target,yes
1481061195,2bcad7441d4e918c0f1800d254507402,Form2,26,0,oa7,NULL,bob_item=OA_role=truecontrolSE,yes
1481061195,2bcad7441d4e918c0f1800d254507402,Form2,26,0,oa7,NULL,chris_item=OA_role=falsecontrol,no
1481061195,2bcad7441d4e918c0f1800d254507402,Form2,26,0,oa7,NULL,_REACTION_TIME_,2075
1481061195,2bcad7441d4e918c0f1800d254507402,Form2,71,0,sym2,NULL,amy_item=whichSymbolFiller_role=truecontrolSE,yes
1481061195,2bcad7441d4e918c0f1800d254507402,Form2,71,0,sym2,NULL,bob_item=whichSymbolFiller_role=UDtargetTrue,yes
1481061195,2bcad7441d4e918c0f1800d254507402,Form2,71,0,sym2,NULL,chris_item=whichSymbolFiller_role=falsecontrol,no
1481061195,2bcad7441d4e918c0f1800d254507402,Form2,71,0,sym2,NULL,_REACTION_TIME_,2555
1481061195,2bcad7441d4e918c0f1800d254507402,Form2,82,0,win3,NULL,amy_item=winFiller_role=falsecontrol,no
1481061195,2bcad7441d4e918c0f1800d254507402,Form2,82,0,win3,NULL,bob_item=winFiller_role=truecontrolSE,yes
1481061195,2bcad7441d4e918c0f1800d254507402,Form2,82,0,win3,NULL,chris_item=winFiller_role=UDtarget,yes
1481061195,2bcad7441d4e918c0f1800d254507402,Form2,82,0,win3,NULL,_REACTION_TIME_,2228
1481061195,2bcad7441d4e918c0f1800d254507402,Form2,22,0,oa3,NULL,amy_item=OA_role=truecontrolSE,yes
1481061195,2bcad7441d4e918c0f1800d254507402,Form2,22,0,oa3,NULL,bob_item=OA_role=target,yes
1481061195,2bcad7441d4e918c0f1800d254507402,Form2,22,0,oa3,NULL,chris_item=OA_role=falsecontrol,no
1481061195,2bcad7441d4e918c0f1800d254507402,Form2,22,0,oa3,NULL,_REACTION_TIME_,3315
1481061195,2bcad7441d4e918c0f1800d254507402,Form2,79,0,win0,NULL,amy_item=winFiller_role=truecontrolSE,yes
1481061195,2bcad7441d4e918c0f1800d254507402,Form2,79,0,win0,NULL,bob_item=winFiller_role=falsecontrol,no
1481061195,2bcad7441d4e918c0f1800d254507402,Form2,79,0,win0,NULL,chris_item=winFiller_role=UDtarget,yes
1481061195,2bcad7441d4e918c0f1800d254507402,Form2,79,0,win0,NULL,_REACTION_TIME_,2614
1481061195,2bcad7441d4e918c0f1800d254507402,Form2,13,0,od4,NULL,amy_item=OD_role=target,no
1481061195,2bcad7441d4e918c0f1800d254507402,Form2,13,0,od4,NULL,bob_item=OD_role=truecontrolSE,yes
1481061195,2bcad7441d4e918c0f1800d254507402,Form2,13,0,od4,NULL,chris_item=OD_role=falsecontrol,no
1481061195,2bcad7441d4e918c0f1800d254507402,Form2,13,0,od4,NULL,_REACTION_TIME_,2318
1481061195,2bcad7441d4e918c0f1800d254507402,Form2,78,0,sym9,NULL,amy_item=whichSymbolFiller_role=truecontrolSE,yes
1481061195,2bcad7441d4e918c0f1800d254507402,Form2,78,0,sym9,NULL,bob_item=whichSymbolFiller_role=falsecontrol,no
1481061195,2bcad7441d4e918c0f1800d254507402,Form2,78,0,sym9,NULL,chris_item=whichSymbolFiller_role=UDtargetTrue,yes
1481061195,2bcad7441d4e918c0f1800d254507402,Form2,78,0,sym9,NULL,_REACTION_TIME_,3756
1481061195,2bcad7441d4e918c0f1800d254507402,Form2,67,0,ppf18,NULL,amy_item=TrueTrueFalseFiller_role=false,no
1481061195,2bcad7441d4e918c0f1800d254507402,Form2,67,0,ppf18,NULL,bob_item=TrueTrueFalseFiller_role=trueSE,yes
1481061195,2bcad7441d4e918c0f1800d254507402,Form2,67,0,ppf18,NULL,chris_item=TrueTrueFalseFiller_role=truePerfect,yes
1481061195,2bcad7441d4e918c0f1800d254507402,Form2,67,0,ppf18,NULL,_REACTION_TIME_,3123
1481061195,2bcad7441d4e918c0f1800d254507402,Form2,18,0,od9,NULL,amy_item=OD_role=truecontrolSE,yes
1481061195,2bcad7441d4e918c0f1800d254507402,Form2,18,0,od9,NULL,bob_item=OD_role=target,no
1481061195,2bcad7441d4e918c0f1800d254507402,Form2,18,0,od9,NULL,chris_item=OD_role=falsecontrol,no
1481061195,2bcad7441d4e918c0f1800d254507402,Form2,18,0,od9,NULL,_REACTION_TIME_,2857
1481061195,2bcad7441d4e918c0f1800d254507402,Form2,59,0,ppf10,NULL,amy_item=TrueTrueFalseFiller_role=trueSE,yes
1481061195,2bcad7441d4e918c0f1800d254507402,Form2,59,0,ppf10,NULL,bob_item=TrueTrueFalseFiller_role=truePerfect,yes
1481061195,2bcad7441d4e918c0f1800d254507402,Form2,59,0,ppf10,NULL,chris_item=TrueTrueFalseFiller_role=false,no
1481061195,2bcad7441d4e918c0f1800d254507402,Form2,59,0,ppf10,NULL,_REACTION_TIME_,2894
1481061195,2bcad7441d4e918c0f1800d254507402,Form2,21,0,oa2,NULL,amy_item=OA_role=falsecontrol,no
1481061195,2bcad7441d4e918c0f1800d254507402,Form2,21,0,oa2,NULL,bob_item=OA_role=target,no
1481061195,2bcad7441d4e918c0f1800d254507402,Form2,21,0,oa2,NULL,chris_item=OA_role=truecontrolSE,yes
1481061195,2bcad7441d4e918c0f1800d254507402,Form2,21,0,oa2,NULL,_REACTION_TIME_,4972
1481061195,2bcad7441d4e918c0f1800d254507402,Form2,56,0,ppf7,NULL,amy_item=TrueTrueFalseFiller_role=truePerfect,yes
1481061195,2bcad7441d4e918c0f1800d254507402,Form2,56,0,ppf7,NULL,bob_item=TrueTrueFalseFiller_role=false,no
1481061195,2bcad7441d4e918c0f1800d254507402,Form2,56,0,ppf7,NULL,chris_item=TrueTrueFalseFiller_role=trueSE,yes
1481061195,2bcad7441d4e918c0f1800d254507402,Form2,56,0,ppf7,NULL,_REACTION_TIME_,3222
1481061195,2bcad7441d4e918c0f1800d254507402,Form2,33,0,ud4,NULL,amy_item=UD_role=truecontrolSE,yes
1481061195,2bcad7441d4e918c0f1800d254507402,Form2,33,0,ud4,NULL,bob_item=UD_role=target,yes
1481061195,2bcad7441d4e918c0f1800d254507402,Form2,33,0,ud4,NULL,chris_item=UD_role=falsecontrol,no
1481061195,2bcad7441d4e918c0f1800d254507402,Form2,33,0,ud4,NULL,_REACTION_TIME_,4452
1481061195,2bcad7441d4e918c0f1800d254507402,Form2,28,0,oa9,NULL,amy_item=OA_role=target,no
1481061195,2bcad7441d4e918c0f1800d254507402,Form2,28,0,oa9,NULL,bob_item=OA_role=truecontrolSE,yes
1481061195,2bcad7441d4e918c0f1800d254507402,Form2,28,0,oa9,NULL,chris_item=OA_role=falsecontrol,no
1481061195,2bcad7441d4e918c0f1800d254507402,Form2,28,0,oa9,NULL,_REACTION_TIME_,2479
1481061195,2bcad7441d4e918c0f1800d254507402,Form2,61,0,ppf12,NULL,amy_item=TrueTrueFalseFiller_role=trueSE,yes
1481061195,2bcad7441d4e918c0f1800d254507402,Form2,61,0,ppf12,NULL,bob_item=TrueTrueFalseFiller_role=false,no
1481061195,2bcad7441d4e918c0f1800d254507402,Form2,61,0,ppf12,NULL,chris_item=TrueTrueFalseFiller_role=truePerfect,yes
1481061195,2bcad7441d4e918c0f1800d254507402,Form2,61,0,ppf12,NULL,_REACTION_TIME_,3430
1481061195,2bcad7441d4e918c0f1800d254507402,Form2,49,0,ppf0,NULL,amy_item=TrueTrueFalseFiller_role=truePerfect,yes
1481061195,2bcad7441d4e918c0f1800d254507402,Form2,49,0,ppf0,NULL,bob_item=TrueTrueFalseFiller_role=trueSE,yes
1481061195,2bcad7441d4e918c0f1800d254507402,Form2,49,0,ppf0,NULL,chris_item=TrueTrueFalseFiller_role=false,no
1481061195,2bcad7441d4e918c0f1800d254507402,Form2,49,0,ppf0,NULL,_REACTION_TIME_,2297
1481061195,2bcad7441d4e918c0f1800d254507402,Form2,65,0,ppf16,NULL,amy_item=TrueTrueFalseFiller_role=trueSE,yes
1481061195,2bcad7441d4e918c0f1800d254507402,Form2,65,0,ppf16,NULL,bob_item=TrueTrueFalseFiller_role=false,no
1481061195,2bcad7441d4e918c0f1800d254507402,Form2,65,0,ppf16,NULL,chris_item=TrueTrueFalseFiller_role=truePerfect,yes
1481061195,2bcad7441d4e918c0f1800d254507402,Form2,65,0,ppf16,NULL,_REACTION_TIME_,3226
1481061195,2bcad7441d4e918c0f1800d254507402,Form2,20,0,oa1,NULL,amy_item=OA_role=falsecontrol,no
1481061195,2bcad7441d4e918c0f1800d254507402,Form2,20,0,oa1,NULL,bob_item=OA_role=truecontrolSE,yes
1481061195,2bcad7441d4e918c0f1800d254507402,Form2,20,0,oa1,NULL,chris_item=OA_role=target,no
1481061195,2bcad7441d4e918c0f1800d254507402,Form2,20,0,oa1,NULL,_REACTION_TIME_,3348
1481061195,2bcad7441d4e918c0f1800d254507402,Form2,68,0,ppf19,NULL,amy_item=TrueTrueFalseFiller_role=false,no
1481061195,2bcad7441d4e918c0f1800d254507402,Form2,68,0,ppf19,NULL,bob_item=TrueTrueFalseFiller_role=truePerfect,yes
1481061195,2bcad7441d4e918c0f1800d254507402,Form2,68,0,ppf19,NULL,chris_item=TrueTrueFalseFiller_role=trueSE,yes
1481061195,2bcad7441d4e918c0f1800d254507402,Form2,68,0,ppf19,NULL,_REACTION_TIME_,2033
1481061195,2bcad7441d4e918c0f1800d254507402,Form2,25,0,oa6,NULL,amy_item=OA_role=falsecontrol,no
1481061195,2bcad7441d4e918c0f1800d254507402,Form2,25,0,oa6,NULL,bob_item=OA_role=truecontrolSE,yes
1481061195,2bcad7441d4e918c0f1800d254507402,Form2,25,0,oa6,NULL,chris_item=OA_role=target,no
1481061195,2bcad7441d4e918c0f1800d254507402,Form2,25,0,oa6,NULL,_REACTION_TIME_,2428
1481061195,2bcad7441d4e918c0f1800d254507402,Form2,41,0,ua2,NULL,amy_item=UA_role=target,no
1481061195,2bcad7441d4e918c0f1800d254507402,Form2,41,0,ua2,NULL,bob_item=UA_role=truecontrolSE,yes
1481061195,2bcad7441d4e918c0f1800d254507402,Form2,41,0,ua2,NULL,chris_item=UA_role=falsecontrol,no
1481061195,2bcad7441d4e918c0f1800d254507402,Form2,41,0,ua2,NULL,_REACTION_TIME_,2717
1481061195,2bcad7441d4e918c0f1800d254507402,Form2,44,0,ua5,NULL,amy_item=UA_role=falsecontrol,no
1481061195,2bcad7441d4e918c0f1800d254507402,Form2,44,0,ua5,NULL,bob_item=UA_role=truecontrolSE,yes
1481061195,2bcad7441d4e918c0f1800d254507402,Form2,44,0,ua5,NULL,chris_item=UA_role=target,no
1481061195,2bcad7441d4e918c0f1800d254507402,Form2,44,0,ua5,NULL,_REACTION_TIME_,2745
1481061195,2bcad7441d4e918c0f1800d254507402,Form2,62,0,ppf13,NULL,amy_item=TrueTrueFalseFiller_role=trueSE,yes
1481061195,2bcad7441d4e918c0f1800d254507402,Form2,62,0,ppf13,NULL,bob_item=TrueTrueFalseFiller_role=truePerfect,yes
1481061195,2bcad7441d4e918c0f1800d254507402,Form2,62,0,ppf13,NULL,chris_item=TrueTrueFalseFiller_role=false,no
1481061195,2bcad7441d4e918c0f1800d254507402,Form2,62,0,ppf13,NULL,_REACTION_TIME_,3119
1481061195,2bcad7441d4e918c0f1800d254507402,Form2,63,0,ppf14,NULL,amy_item=TrueTrueFalseFiller_role=trueSE,yes
1481061195,2bcad7441d4e918c0f1800d254507402,Form2,63,0,ppf14,NULL,bob_item=TrueTrueFalseFiller_role=false,no
1481061195,2bcad7441d4e918c0f1800d254507402,Form2,63,0,ppf14,NULL,chris_item=TrueTrueFalseFiller_role=truePerfect,yes
1481061195,2bcad7441d4e918c0f1800d254507402,Form2,63,0,ppf14,NULL,_REACTION_TIME_,3073
1481061195,2bcad7441d4e918c0f1800d254507402,Form2,83,0,win4,NULL,amy_item=winFiller_role=truecontrolSE,yes
1481061195,2bcad7441d4e918c0f1800d254507402,Form2,83,0,win4,NULL,bob_item=winFiller_role=falsecontrol,no
1481061195,2bcad7441d4e918c0f1800d254507402,Form2,83,0,win4,NULL,chris_item=winFiller_role=UDtarget,yes
1481061195,2bcad7441d4e918c0f1800d254507402,Form2,83,0,win4,NULL,_REACTION_TIME_,3689
1481061195,2bcad7441d4e918c0f1800d254507402,Form2,47,0,ua8,NULL,amy_item=UA_role=target,no
1481061195,2bcad7441d4e918c0f1800d254507402,Form2,47,0,ua8,NULL,bob_item=UA_role=falsecontrol,no
1481061195,2bcad7441d4e918c0f1800d254507402,Form2,47,0,ua8,NULL,chris_item=UA_role=truecontrolSE,yes
1481061195,2bcad7441d4e918c0f1800d254507402,Form2,47,0,ua8,NULL,_REACTION_TIME_,2752
1481061195,2bcad7441d4e918c0f1800d254507402,Form2,11,0,od2,NULL,amy_item=OD_role=falsecontrol,no
1481061195,2bcad7441d4e918c0f1800d254507402,Form2,11,0,od2,NULL,bob_item=OD_role=target,no
1481061195,2bcad7441d4e918c0f1800d254507402,Form2,11,0,od2,NULL,chris_item=OD_role=truecontrolSE,yes
1481061195,2bcad7441d4e918c0f1800d254507402,Form2,11,0,od2,NULL,_REACTION_TIME_,2022
1481061195,2bcad7441d4e918c0f1800d254507402,Form2,42,0,ua3,NULL,amy_item=UA_role=truecontrolSE,yes
1481061195,2bcad7441d4e918c0f1800d254507402,Form2,42,0,ua3,NULL,bob_item=UA_role=falsecontrol,no
1481061195,2bcad7441d4e918c0f1800d254507402,Form2,42,0,ua3,NULL,chris_item=UA_role=target,no
1481061195,2bcad7441d4e918c0f1800d254507402,Form2,42,0,ua3,NULL,_REACTION_TIME_,4368
1481061195,2bcad7441d4e918c0f1800d254507402,Form2,12,0,od3,NULL,amy_item=OD_role=falsecontrol,no
1481061195,2bcad7441d4e918c0f1800d254507402,Form2,12,0,od3,NULL,bob_item=OD_role=truecontrolSE,yes
1481061195,2bcad7441d4e918c0f1800d254507402,Form2,12,0,od3,NULL,chris_item=OD_role=target,no
1481061195,2bcad7441d4e918c0f1800d254507402,Form2,12,0,od3,NULL,_REACTION_TIME_,1812
1481061195,2bcad7441d4e918c0f1800d254507402,Form2,16,0,od7,NULL,amy_item=OD_role=target,no
1481061195,2bcad7441d4e918c0f1800d254507402,Form2,16,0,od7,NULL,bob_item=OD_role=truecontrolSE,yes
1481061195,2bcad7441d4e918c0f1800d254507402,Form2,16,0,od7,NULL,chris_item=OD_role=falsecontrol,no
1481061195,2bcad7441d4e918c0f1800d254507402,Form2,16,0,od7,NULL,_REACTION_TIME_,1607
1481061195,2bcad7441d4e918c0f1800d254507402,Form2,74,0,sym5,NULL,amy_item=whichSymbolFiller_role=UDtargetTrue,yes
1481061195,2bcad7441d4e918c0f1800d254507402,Form2,74,0,sym5,NULL,bob_item=whichSymbolFiller_role=truecontrolSE,yes
1481061195,2bcad7441d4e918c0f1800d254507402,Form2,74,0,sym5,NULL,chris_item=whichSymbolFiller_role=falsecontrol,no
1481061195,2bcad7441d4e918c0f1800d254507402,Form2,74,0,sym5,NULL,_REACTION_TIME_,2901
1481061195,2bcad7441d4e918c0f1800d254507402,Form2,14,0,od5,NULL,amy_item=OD_role=target,no
1481061195,2bcad7441d4e918c0f1800d254507402,Form2,14,0,od5,NULL,bob_item=OD_role=falsecontrol,no
1481061195,2bcad7441d4e918c0f1800d254507402,Form2,14,0,od5,NULL,chris_item=OD_role=truecontrolSE,yes
1481061195,2bcad7441d4e918c0f1800d254507402,Form2,14,0,od5,NULL,_REACTION_TIME_,2272
1481061195,2bcad7441d4e918c0f1800d254507402,Form2,81,0,win2,NULL,amy_item=winFiller_role=truecontrolSE,yes
1481061195,2bcad7441d4e918c0f1800d254507402,Form2,81,0,win2,NULL,bob_item=winFiller_role=falsecontrol,no
1481061195,2bcad7441d4e918c0f1800d254507402,Form2,81,0,win2,NULL,chris_item=winFiller_role=UDtarget,yes
1481061195,2bcad7441d4e918c0f1800d254507402,Form2,81,0,win2,NULL,_REACTION_TIME_,2831
1481061195,2bcad7441d4e918c0f1800d254507402,Form2,84,0,lose0,NULL,amy_item=winFiller_role=truecontrol,no
1481061195,2bcad7441d4e918c0f1800d254507402,Form2,84,0,lose0,NULL,bob_item=winFiller_role=UDtarget,yes
1481061195,2bcad7441d4e918c0f1800d254507402,Form2,84,0,lose0,NULL,chris_item=winFiller_role=falsecontrolSE,yes
1481061195,2bcad7441d4e918c0f1800d254507402,Form2,84,0,lose0,NULL,_REACTION_TIME_,2122
1481061195,2bcad7441d4e918c0f1800d254507402,Form2,34,0,ud5,NULL,amy_item=UD_role=falsecontrol,no
1481061195,2bcad7441d4e918c0f1800d254507402,Form2,34,0,ud5,NULL,bob_item=UD_role=truecontrolSE,yes
1481061195,2bcad7441d4e918c0f1800d254507402,Form2,34,0,ud5,NULL,chris_item=UD_role=target,yes
1481061195,2bcad7441d4e918c0f1800d254507402,Form2,34,0,ud5,NULL,_REACTION_TIME_,2152
1481061195,2bcad7441d4e918c0f1800d254507402,Form2,66,0,ppf17,NULL,amy_item=TrueTrueFalseFiller_role=false,no
