#
# Results on Tuesday November 29 2016 15:42:18 UTC.
# USER AGENT: Mozilla/5.0 (X11; Linux x86_64) AppleWebKit/537.36 (KHTML, like Gecko) Chrome/50.0.2661.102 Safari/537.36
# Design number was non-random = 0
#
# Columns below this comment are as follows:
# 1. Time results were received.
# 2. MD5 hash of participant's IP address.
# 3. Controller name.
# 4. Item number.
# 5. Element number.
# 6. Type.
# 7. Group.
# 8. Field name.
# 9. Field value.
#
# Results on Sunday December 04 2016 19:31:45 UTC.
# USER AGENT: Mozilla/5.0 (X11; Linux x86_64) AppleWebKit/537.36 (KHTML, like Gecko) Chrome/50.0.2661.102 Safari/537.36
# Design number was non-random = 5
#
# Columns below this comment are as follows:
# 1. Time results were received.
# 2. MD5 hash of participant's IP address.
# 3. Controller name.
# 4. Item number.
# 5. Element number.
# 6. Type.
# 7. Group.
# 8. Field name.
# 9. Field value.
1480879906,5147a6f6b82e2e021e4ce3368d729868,Form,1,0,instructions,NULL,,no
1480879906,5147a6f6b82e2e021e4ce3368d729868,Form,1,0,instructions,NULL,,no
1480879906,5147a6f6b82e2e021e4ce3368d729868,Form,1,0,instructions,NULL,,no
1480879906,5147a6f6b82e2e021e4ce3368d729868,Form,1,0,instructions,NULL,,no
1480879906,5147a6f6b82e2e021e4ce3368d729868,Form,1,0,instructions,NULL,,no
1480879906,5147a6f6b82e2e021e4ce3368d729868,Form,1,0,instructions,NULL,,no
1480879906,5147a6f6b82e2e021e4ce3368d729868,Form,1,0,instructions,NULL,,no
1480879906,5147a6f6b82e2e021e4ce3368d729868,Form,1,0,instructions,NULL,,no
1480879906,5147a6f6b82e2e021e4ce3368d729868,Form,1,0,instructions,NULL,,no
1480879906,5147a6f6b82e2e021e4ce3368d729868,Form,1,0,instructions,NULL,,no
1480879906,5147a6f6b82e2e021e4ce3368d729868,Form,1,0,instructions,NULL,,no
1480879906,5147a6f6b82e2e021e4ce3368d729868,Form,1,0,instructions,NULL,,no
1480879906,5147a6f6b82e2e021e4ce3368d729868,Form,1,0,instructions,NULL,_REACTION_TIME_,3788
1480879906,5147a6f6b82e2e021e4ce3368d729868,Form,2,0,training1,NULL,,yes
1480879906,5147a6f6b82e2e021e4ce3368d729868,Form,2,0,training1,NULL,,no
1480879906,5147a6f6b82e2e021e4ce3368d729868,Form,2,0,training1,NULL,,yes
1480879906,5147a6f6b82e2e021e4ce3368d729868,Form,2,0,training1,NULL,_REACTION_TIME_,37072
1480879906,5147a6f6b82e2e021e4ce3368d729868,Form,3,0,training2,NULL,,yes
1480879906,5147a6f6b82e2e021e4ce3368d729868,Form,3,0,training2,NULL,,yes
1480879906,5147a6f6b82e2e021e4ce3368d729868,Form,3,0,training2,NULL,,no
1480879906,5147a6f6b82e2e021e4ce3368d729868,Form,3,0,training2,NULL,_REACTION_TIME_,17957
1480879906,5147a6f6b82e2e021e4ce3368d729868,Form,4,0,training3,NULL,,no
1480879906,5147a6f6b82e2e021e4ce3368d729868,Form,4,0,training3,NULL,,no
1480879906,5147a6f6b82e2e021e4ce3368d729868,Form,4,0,training3,NULL,,yes
1480879906,5147a6f6b82e2e021e4ce3368d729868,Form,4,0,training3,NULL,_REACTION_TIME_,9182
1480879906,5147a6f6b82e2e021e4ce3368d729868,Form,5,0,training4,NULL,,yes
1480879906,5147a6f6b82e2e021e4ce3368d729868,Form,5,0,training4,NULL,,yes
1480879906,5147a6f6b82e2e021e4ce3368d729868,Form,5,0,training4,NULL,,no
1480879906,5147a6f6b82e2e021e4ce3368d729868,Form,5,0,training4,NULL,_REACTION_TIME_,12818
1480879906,5147a6f6b82e2e021e4ce3368d729868,Form,6,0,training5,NULL,,yes
1480879906,5147a6f6b82e2e021e4ce3368d729868,Form,6,0,training5,NULL,,no
1480879906,5147a6f6b82e2e021e4ce3368d729868,Form,6,0,training5,NULL,,no
1480879906,5147a6f6b82e2e021e4ce3368d729868,Form,6,0,training5,NULL,_REACTION_TIME_,29451
#
# Results on Sunday December 04 2016 19:39:53 UTC.
# USER AGENT: Mozilla/5.0 (X11; Linux x86_64) AppleWebKit/537.36 (KHTML, like Gecko) Chrome/50.0.2661.102 Safari/537.36
# Design number was non-random = 6
#
# Columns below this comment are as follows:
# 1. Time results were received.
# 2. MD5 hash of participant's IP address.
# 3. Controller name.
# 4. Item number.
# 5. Element number.
# 6. Type.
# 7. Group.
# 8. Field name.
# 9. Field value.
1480880394,5147a6f6b82e2e021e4ce3368d729868,Form,1,0,instructions,NULL,,no
1480880394,5147a6f6b82e2e021e4ce3368d729868,Form,1,0,instructions,NULL,,no
1480880394,5147a6f6b82e2e021e4ce3368d729868,Form,1,0,instructions,NULL,,no
1480880394,5147a6f6b82e2e021e4ce3368d729868,Form,1,0,instructions,NULL,,no
1480880394,5147a6f6b82e2e021e4ce3368d729868,Form,1,0,instructions,NULL,,no
1480880394,5147a6f6b82e2e021e4ce3368d729868,Form,1,0,instructions,NULL,,no
1480880394,5147a6f6b82e2e021e4ce3368d729868,Form,1,0,instructions,NULL,,no
1480880394,5147a6f6b82e2e021e4ce3368d729868,Form,1,0,instructions,NULL,,no
1480880394,5147a6f6b82e2e021e4ce3368d729868,Form,1,0,instructions,NULL,,no
1480880394,5147a6f6b82e2e021e4ce3368d729868,Form,1,0,instructions,NULL,,no
1480880394,5147a6f6b82e2e021e4ce3368d729868,Form,1,0,instructions,NULL,,no
1480880394,5147a6f6b82e2e021e4ce3368d729868,Form,1,0,instructions,NULL,,no
1480880394,5147a6f6b82e2e021e4ce3368d729868,Form,1,0,instructions,NULL,_REACTION_TIME_,3412
1480880394,5147a6f6b82e2e021e4ce3368d729868,Form,2,0,training1,NULL,,no
1480880394,5147a6f6b82e2e021e4ce3368d729868,Form,2,0,training1,NULL,,no
1480880394,5147a6f6b82e2e021e4ce3368d729868,Form,2,0,training1,NULL,,no
1480880394,5147a6f6b82e2e021e4ce3368d729868,Form,2,0,training1,NULL,_REACTION_TIME_,1528
1480880394,5147a6f6b82e2e021e4ce3368d729868,Form,3,0,training2,NULL,,no
1480880394,5147a6f6b82e2e021e4ce3368d729868,Form,3,0,training2,NULL,,no
1480880394,5147a6f6b82e2e021e4ce3368d729868,Form,3,0,training2,NULL,,no
1480880394,5147a6f6b82e2e021e4ce3368d729868,Form,3,0,training2,NULL,_REACTION_TIME_,689
1480880394,5147a6f6b82e2e021e4ce3368d729868,Form,4,0,training3,NULL,,no
1480880394,5147a6f6b82e2e021e4ce3368d729868,Form,4,0,training3,NULL,,no
1480880394,5147a6f6b82e2e021e4ce3368d729868,Form,4,0,training3,NULL,,no
1480880394,5147a6f6b82e2e021e4ce3368d729868,Form,4,0,training3,NULL,_REACTION_TIME_,664
1480880394,5147a6f6b82e2e021e4ce3368d729868,Form,5,0,training4,NULL,,no
1480880394,5147a6f6b82e2e021e4ce3368d729868,Form,5,0,training4,NULL,,no
1480880394,5147a6f6b82e2e021e4ce3368d729868,Form,5,0,training4,NULL,,no
1480880394,5147a6f6b82e2e021e4ce3368d729868,Form,5,0,training4,NULL,_REACTION_TIME_,717
1480880394,5147a6f6b82e2e021e4ce3368d729868,Form,6,0,training5,NULL,,no
1480880394,5147a6f6b82e2e021e4ce3368d729868,Form,6,0,training5,NULL,,no
1480880394,5147a6f6b82e2e021e4ce3368d729868,Form,6,0,training5,NULL,,no
1480880394,5147a6f6b82e2e021e4ce3368d729868,Form,6,0,training5,NULL,_REACTION_TIME_,2336
1480880394,5147a6f6b82e2e021e4ce3368d729868,Form,17,0,oa0,NULL,amy_item=OA_role=target,no
1480880394,5147a6f6b82e2e021e4ce3368d729868,Form,17,0,oa0,NULL,bob_item=OA_role=falsecontrol,no
1480880394,5147a6f6b82e2e021e4ce3368d729868,Form,17,0,oa0,NULL,chris_item=OA_role=truecontrolSE,yes
1480880394,5147a6f6b82e2e021e4ce3368d729868,Form,17,0,oa0,NULL,_REACTION_TIME_,8197
1480880394,5147a6f6b82e2e021e4ce3368d729868,Form,18,0,oa1,NULL,amy_item=OA_role=truecontrolSE,yes
1480880394,5147a6f6b82e2e021e4ce3368d729868,Form,18,0,oa1,NULL,bob_item=OA_role=target,no
1480880394,5147a6f6b82e2e021e4ce3368d729868,Form,18,0,oa1,NULL,chris_item=OA_role=falsecontrol,no
1480880394,5147a6f6b82e2e021e4ce3368d729868,Form,18,0,oa1,NULL,_REACTION_TIME_,26239
1480880394,5147a6f6b82e2e021e4ce3368d729868,Form,19,0,oa2,NULL,amy_item=OA_role=target,no
1480880394,5147a6f6b82e2e021e4ce3368d729868,Form,19,0,oa2,NULL,bob_item=OA_role=falsecontrol,no
1480880394,5147a6f6b82e2e021e4ce3368d729868,Form,19,0,oa2,NULL,chris_item=OA_role=truecontrolSE,yes
1480880394,5147a6f6b82e2e021e4ce3368d729868,Form,19,0,oa2,NULL,_REACTION_TIME_,15321
1480880394,5147a6f6b82e2e021e4ce3368d729868,Form,20,0,oa3,NULL,amy_item=OA_role=falsecontrol,no
1480880394,5147a6f6b82e2e021e4ce3368d729868,Form,20,0,oa3,NULL,bob_item=OA_role=truecontrolSE,yes
1480880394,5147a6f6b82e2e021e4ce3368d729868,Form,20,0,oa3,NULL,chris_item=OA_role=target,no
1480880394,5147a6f6b82e2e021e4ce3368d729868,Form,20,0,oa3,NULL,_REACTION_TIME_,6445
1480880394,5147a6f6b82e2e021e4ce3368d729868,Form,21,0,oa4,NULL,amy_item=OA_role=truecontrolSE,yes
1480880394,5147a6f6b82e2e021e4ce3368d729868,Form,21,0,oa4,NULL,bob_item=OA_role=falsecontrol,no
1480880394,5147a6f6b82e2e021e4ce3368d729868,Form,21,0,oa4,NULL,chris_item=OA_role=target,no
1480880394,5147a6f6b82e2e021e4ce3368d729868,Form,21,0,oa4,NULL,_REACTION_TIME_,20541
1480880394,5147a6f6b82e2e021e4ce3368d729868,Form,22,0,oa5,NULL,amy_item=OA_role=truecontrolSE,yes
1480880394,5147a6f6b82e2e021e4ce3368d729868,Form,22,0,oa5,NULL,bob_item=OA_role=target,no
1480880394,5147a6f6b82e2e021e4ce3368d729868,Form,22,0,oa5,NULL,chris_item=OA_role=falsecontrol,no
1480880394,5147a6f6b82e2e021e4ce3368d729868,Form,22,0,oa5,NULL,_REACTION_TIME_,7426
1480880394,5147a6f6b82e2e021e4ce3368d729868,Form,23,0,oa6,NULL,amy_item=OA_role=falsecontrol,no
1480880394,5147a6f6b82e2e021e4ce3368d729868,Form,23,0,oa6,NULL,bob_item=OA_role=truecontrolSE,yes
1480880394,5147a6f6b82e2e021e4ce3368d729868,Form,23,0,oa6,NULL,chris_item=OA_role=target,no
1480880394,5147a6f6b82e2e021e4ce3368d729868,Form,23,0,oa6,NULL,_REACTION_TIME_,8475
1480880394,5147a6f6b82e2e021e4ce3368d729868,Form,24,0,oa7,NULL,amy_item=OA_role=falsecontrol,no
1480880394,5147a6f6b82e2e021e4ce3368d729868,Form,24,0,oa7,NULL,bob_item=OA_role=truecontrolSE,yes
1480880394,5147a6f6b82e2e021e4ce3368d729868,Form,24,0,oa7,NULL,chris_item=OA_role=target,no
1480880394,5147a6f6b82e2e021e4ce3368d729868,Form,24,0,oa7,NULL,_REACTION_TIME_,9286
1480880394,5147a6f6b82e2e021e4ce3368d729868,Form,25,0,oa8,NULL,amy_item=OA_role=target,no
1480880394,5147a6f6b82e2e021e4ce3368d729868,Form,25,0,oa8,NULL,bob_item=OA_role=falsecontrol,no
1480880394,5147a6f6b82e2e021e4ce3368d729868,Form,25,0,oa8,NULL,chris_item=OA_role=truecontrolSE,yes
1480880394,5147a6f6b82e2e021e4ce3368d729868,Form,25,0,oa8,NULL,_REACTION_TIME_,11117
1480880394,5147a6f6b82e2e021e4ce3368d729868,Form,26,0,oa9,NULL,amy_item=OA_role=truecontrolSE,yes
1480880394,5147a6f6b82e2e021e4ce3368d729868,Form,26,0,oa9,NULL,bob_item=OA_role=falsecontrol,no
1480880394,5147a6f6b82e2e021e4ce3368d729868,Form,26,0,oa9,NULL,chris_item=OA_role=target,no
1480880394,5147a6f6b82e2e021e4ce3368d729868,Form,26,0,oa9,NULL,_REACTION_TIME_,7852
1480880394,5147a6f6b82e2e021e4ce3368d729868,Form,7,0,od0,NULL,amy_item=OD_role=falsecontrol,no
1480880394,5147a6f6b82e2e021e4ce3368d729868,Form,7,0,od0,NULL,bob_item=OD_role=truecontrolSE,yes
1480880394,5147a6f6b82e2e021e4ce3368d729868,Form,7,0,od0,NULL,chris_item=OD_role=target,no
1480880394,5147a6f6b82e2e021e4ce3368d729868,Form,7,0,od0,NULL,_REACTION_TIME_,6089
1480880394,5147a6f6b82e2e021e4ce3368d729868,Form,8,0,od1,NULL,amy_item=OD_role=target,no
1480880394,5147a6f6b82e2e021e4ce3368d729868,Form,8,0,od1,NULL,bob_item=OD_role=truecontrolSE,yes
1480880394,5147a6f6b82e2e021e4ce3368d729868,Form,8,0,od1,NULL,chris_item=OD_role=falsecontrol,no
1480880394,5147a6f6b82e2e021e4ce3368d729868,Form,8,0,od1,NULL,_REACTION_TIME_,19691
1480880394,5147a6f6b82e2e021e4ce3368d729868,Form,9,0,od2,NULL,amy_item=OD_role=target,no
1480880394,5147a6f6b82e2e021e4ce3368d729868,Form,9,0,od2,NULL,bob_item=OD_role=falsecontrol,no
1480880394,5147a6f6b82e2e021e4ce3368d729868,Form,9,0,od2,NULL,chris_item=OD_role=truecontrolSE,yes
1480880394,5147a6f6b82e2e021e4ce3368d729868,Form,9,0,od2,NULL,_REACTION_TIME_,10949
1480880394,5147a6f6b82e2e021e4ce3368d729868,Form,10,0,od3,NULL,amy_item=OD_role=target,no
1480880394,5147a6f6b82e2e021e4ce3368d729868,Form,10,0,od3,NULL,bob_item=OD_role=falsecontrol,no
1480880394,5147a6f6b82e2e021e4ce3368d729868,Form,10,0,od3,NULL,chris_item=OD_role=truecontrolSE,yes
1480880394,5147a6f6b82e2e021e4ce3368d729868,Form,10,0,od3,NULL,_REACTION_TIME_,6159
1480880394,5147a6f6b82e2e021e4ce3368d729868,Form,11,0,od4,NULL,amy_item=OD_role=falsecontrol,no
1480880394,5147a6f6b82e2e021e4ce3368d729868,Form,11,0,od4,NULL,bob_item=OD_role=truecontrolSE,yes
1480880394,5147a6f6b82e2e021e4ce3368d729868,Form,11,0,od4,NULL,chris_item=OD_role=target,no
1480880394,5147a6f6b82e2e021e4ce3368d729868,Form,11,0,od4,NULL,_REACTION_TIME_,11814
1480880394,5147a6f6b82e2e021e4ce3368d729868,Form,12,0,od5,NULL,amy_item=OD_role=falsecontrol,no
1480880394,5147a6f6b82e2e021e4ce3368d729868,Form,12,0,od5,NULL,bob_item=OD_role=truecontrolSE,no
1480880394,5147a6f6b82e2e021e4ce3368d729868,Form,12,0,od5,NULL,chris_item=OD_role=target,no
1480880394,5147a6f6b82e2e021e4ce3368d729868,Form,12,0,od5,NULL,_REACTION_TIME_,6142
1480880394,5147a6f6b82e2e021e4ce3368d729868,Form,13,0,od6,NULL,amy_item=OD_role=truecontrolSE,no
1480880394,5147a6f6b82e2e021e4ce3368d729868,Form,13,0,od6,NULL,bob_item=OD_role=falsecontrol,no
1480880394,5147a6f6b82e2e021e4ce3368d729868,Form,13,0,od6,NULL,chris_item=OD_role=target,no
1480880394,5147a6f6b82e2e021e4ce3368d729868,Form,13,0,od6,NULL,_REACTION_TIME_,599
1480880394,5147a6f6b82e2e021e4ce3368d729868,Form,14,0,od7,NULL,amy_item=OD_role=truecontrolSE,no
1480880394,5147a6f6b82e2e021e4ce3368d729868,Form,14,0,od7,NULL,bob_item=OD_role=target,no
1480880394,5147a6f6b82e2e021e4ce3368d729868,Form,14,0,od7,NULL,chris_item=OD_role=falsecontrol,no
1480880394,5147a6f6b82e2e021e4ce3368d729868,Form,14,0,od7,NULL,_REACTION_TIME_,147
1480880394,5147a6f6b82e2e021e4ce3368d729868,Form,15,0,od8,NULL,amy_item=OD_role=target,no
1480880394,5147a6f6b82e2e021e4ce3368d729868,Form,15,0,od8,NULL,bob_item=OD_role=falsecontrol,no
1480880394,5147a6f6b82e2e021e4ce3368d729868,Form,15,0,od8,NULL,chris_item=OD_role=truecontrolSE,no
1480880394,5147a6f6b82e2e021e4ce3368d729868,Form,15,0,od8,NULL,_REACTION_TIME_,138
1480880394,5147a6f6b82e2e021e4ce3368d729868,Form,16,0,od9,NULL,amy_item=OD_role=truecontrolSE,no
1480880394,5147a6f6b82e2e021e4ce3368d729868,Form,16,0,od9,NULL,bob_item=OD_role=falsecontrol,no
1480880394,5147a6f6b82e2e021e4ce3368d729868,Form,16,0,od9,NULL,chris_item=OD_role=target,no
1480880394,5147a6f6b82e2e021e4ce3368d729868,Form,16,0,od9,NULL,_REACTION_TIME_,138
1480880394,5147a6f6b82e2e021e4ce3368d729868,Form,27,0,ud0,NULL,amy_item=UD_role=truecontrolSE,no
1480880394,5147a6f6b82e2e021e4ce3368d729868,Form,27,0,ud0,NULL,bob_item=UD_role=target,no
1480880394,5147a6f6b82e2e021e4ce3368d729868,Form,27,0,ud0,NULL,chris_item=UD_role=falsecontrol,no
1480880394,5147a6f6b82e2e021e4ce3368d729868,Form,27,0,ud0,NULL,_REACTION_TIME_,132
1480880394,5147a6f6b82e2e021e4ce3368d729868,Form,28,0,ud1,NULL,amy_item=UD_role=falsecontrol,no
1480880394,5147a6f6b82e2e021e4ce3368d729868,Form,28,0,ud1,NULL,bob_item=UD_role=truecontrolSE,no
1480880394,5147a6f6b82e2e021e4ce3368d729868,Form,28,0,ud1,NULL,chris_item=UD_role=target,no
1480880394,5147a6f6b82e2e021e4ce3368d729868,Form,28,0,ud1,NULL,_REACTION_TIME_,119
1480880394,5147a6f6b82e2e021e4ce3368d729868,Form,29,0,ud2,NULL,amy_item=UD_role=truecontrolSE,no
1480880394,5147a6f6b82e2e021e4ce3368d729868,Form,29,0,ud2,NULL,bob_item=UD_role=target,no
1480880394,5147a6f6b82e2e021e4ce3368d729868,Form,29,0,ud2,NULL,chris_item=UD_role=falsecontrol,no
1480880394,5147a6f6b82e2e021e4ce3368d729868,Form,29,0,ud2,NULL,_REACTION_TIME_,149
1480880394,5147a6f6b82e2e021e4ce3368d729868,Form,30,0,ud3,NULL,amy_item=UD_role=truecontrolSE,no
1480880394,5147a6f6b82e2e021e4ce3368d729868,Form,30,0,ud3,NULL,bob_item=UD_role=target,no
1480880394,5147a6f6b82e2e021e4ce3368d729868,Form,30,0,ud3,NULL,chris_item=UD_role=falsecontrol,no
1480880394,5147a6f6b82e2e021e4ce3368d729868,Form,30,0,ud3,NULL,_REACTION_TIME_,156
1480880394,5147a6f6b82e2e021e4ce3368d729868,Form,31,0,ud4,NULL,amy_item=UD_role=target,no
1480880394,5147a6f6b82e2e021e4ce3368d729868,Form,31,0,ud4,NULL,bob_item=UD_role=truecontrolSE,no
1480880394,5147a6f6b82e2e021e4ce3368d729868,Form,31,0,ud4,NULL,chris_item=UD_role=falsecontrol,no
1480880394,5147a6f6b82e2e021e4ce3368d729868,Form,31,0,ud4,NULL,_REACTION_TIME_,145
1480880394,5147a6f6b82e2e021e4ce3368d729868,Form,32,0,ud5,NULL,amy_item=UD_role=falsecontrol,no
1480880394,5147a6f6b82e2e021e4ce3368d729868,Form,32,0,ud5,NULL,bob_item=UD_role=truecontrolSE,no
1480880394,5147a6f6b82e2e021e4ce3368d729868,Form,32,0,ud5,NULL,chris_item=UD_role=target,no
1480880394,5147a6f6b82e2e021e4ce3368d729868,Form,32,0,ud5,NULL,_REACTION_TIME_,144
1480880394,5147a6f6b82e2e021e4ce3368d729868,Form,33,0,ud6,NULL,amy_item=UD_role=truecontrolSE,no
1480880394,5147a6f6b82e2e021e4ce3368d729868,Form,33,0,ud6,NULL,bob_item=UD_role=falsecontrol,no
1480880394,5147a6f6b82e2e021e4ce3368d729868,Form,33,0,ud6,NULL,chris_item=UD_role=target,no
1480880394,5147a6f6b82e2e021e4ce3368d729868,Form,33,0,ud6,NULL,_REACTION_TIME_,148
1480880394,5147a6f6b82e2e021e4ce3368d729868,Form,34,0,ud7,NULL,amy_item=UD_role=falsecontrol,no
1480880394,5147a6f6b82e2e021e4ce3368d729868,Form,34,0,ud7,NULL,bob_item=UD_role=truecontrolSE,no
1480880394,5147a6f6b82e2e021e4ce3368d729868,Form,34,0,ud7,NULL,chris_item=UD_role=target,no
1480880394,5147a6f6b82e2e021e4ce3368d729868,Form,34,0,ud7,NULL,_REACTION_TIME_,137
1480880394,5147a6f6b82e2e021e4ce3368d729868,Form,35,0,ud8,NULL,amy_item=UD_role=truecontrolSE,no
1480880394,5147a6f6b82e2e021e4ce3368d729868,Form,35,0,ud8,NULL,bob_item=UD_role=target,no
1480880394,5147a6f6b82e2e021e4ce3368d729868,Form,35,0,ud8,NULL,chris_item=UD_role=falsecontrol,no
1480880394,5147a6f6b82e2e021e4ce3368d729868,Form,35,0,ud8,NULL,_REACTION_TIME_,150
1480880394,5147a6f6b82e2e021e4ce3368d729868,Form,36,0,ud9,NULL,amy_item=UD_role=truecontrolSE,no
1480880394,5147a6f6b82e2e021e4ce3368d729868,Form,36,0,ud9,NULL,bob_item=UD_role=falsecontrol,no
1480880394,5147a6f6b82e2e021e4ce3368d729868,Form,36,0,ud9,NULL,chris_item=UD_role=target,no
1480880394,5147a6f6b82e2e021e4ce3368d729868,Form,36,0,ud9,NULL,_REACTION_TIME_,142
1480880394,5147a6f6b82e2e021e4ce3368d729868,Form,37,0,ua0,NULL,amy_item=UA_role=falsecontrol,no
1480880394,5147a6f6b82e2e021e4ce3368d729868,Form,37,0,ua0,NULL,bob_item=UA_role=target,no
1480880394,5147a6f6b82e2e021e4ce3368d729868,Form,37,0,ua0,NULL,chris_item=UA_role=truecontrolSE,no
1480880394,5147a6f6b82e2e021e4ce3368d729868,Form,37,0,ua0,NULL,_REACTION_TIME_,135
1480880394,5147a6f6b82e2e021e4ce3368d729868,Form,38,0,ua1,NULL,amy_item=UA_role=target,no
1480880394,5147a6f6b82e2e021e4ce3368d729868,Form,38,0,ua1,NULL,bob_item=UA_role=falsecontrol,no
1480880394,5147a6f6b82e2e021e4ce3368d729868,Form,38,0,ua1,NULL,chris_item=UA_role=truecontrolSE,no
1480880394,5147a6f6b82e2e021e4ce3368d729868,Form,38,0,ua1,NULL,_REACTION_TIME_,145
1480880394,5147a6f6b82e2e021e4ce3368d729868,Form,39,0,ua2,NULL,amy_item=UA_role=falsecontrol,no
1480880394,5147a6f6b82e2e021e4ce3368d729868,Form,39,0,ua2,NULL,bob_item=UA_role=target,no
1480880394,5147a6f6b82e2e021e4ce3368d729868,Form,39,0,ua2,NULL,chris_item=UA_role=truecontrolSE,no
1480880394,5147a6f6b82e2e021e4ce3368d729868,Form,39,0,ua2,NULL,_REACTION_TIME_,137
1480880394,5147a6f6b82e2e021e4ce3368d729868,Form,40,0,ua3,NULL,amy_item=UA_role=falsecontrol,no
1480880394,5147a6f6b82e2e021e4ce3368d729868,Form,40,0,ua3,NULL,bob_item=UA_role=truecontrolSE,no
1480880394,5147a6f6b82e2e021e4ce3368d729868,Form,40,0,ua3,NULL,chris_item=UA_role=target,no
1480880394,5147a6f6b82e2e021e4ce3368d729868,Form,40,0,ua3,NULL,_REACTION_TIME_,1527
1480880394,5147a6f6b82e2e021e4ce3368d729868,Form,41,0,ua4,NULL,amy_item=UA_role=falsecontrol,no
1480880394,5147a6f6b82e2e021e4ce3368d729868,Form,41,0,ua4,NULL,bob_item=UA_role=truecontrolSE,no
1480880394,5147a6f6b82e2e021e4ce3368d729868,Form,41,0,ua4,NULL,chris_item=UA_role=target,no
1480880394,5147a6f6b82e2e021e4ce3368d729868,Form,41,0,ua4,NULL,_REACTION_TIME_,149
1480880394,5147a6f6b82e2e021e4ce3368d729868,Form,42,0,ua5,NULL,amy_item=UA_role=falsecontrol,no
1480880394,5147a6f6b82e2e021e4ce3368d729868,Form,42,0,ua5,NULL,bob_item=UA_role=truecontrolSE,no
1480880394,5147a6f6b82e2e021e4ce3368d729868,Form,42,0,ua5,NULL,chris_item=UA_role=target,no
1480880394,5147a6f6b82e2e021e4ce3368d729868,Form,42,0,ua5,NULL,_REACTION_TIME_,162
1480880394,5147a6f6b82e2e021e4ce3368d729868,Form,43,0,ua6,NULL,amy_item=UA_role=target,no
1480880394,5147a6f6b82e2e021e4ce3368d729868,Form,43,0,ua6,NULL,bob_item=UA_role=truecontrolSE,no
1480880394,5147a6f6b82e2e021e4ce3368d729868,Form,43,0,ua6,NULL,chris_item=UA_role=falsecontrol,no
1480880394,5147a6f6b82e2e021e4ce3368d729868,Form,43,0,ua6,NULL,_REACTION_TIME_,142
1480880394,5147a6f6b82e2e021e4ce3368d729868,Form,44,0,ua7,NULL,amy_item=UA_role=falsecontrol,no
1480880394,5147a6f6b82e2e021e4ce3368d729868,Form,44,0,ua7,NULL,bob_item=UA_role=truecontrolSE,no
1480880394,5147a6f6b82e2e021e4ce3368d729868,Form,44,0,ua7,NULL,chris_item=UA_role=target,no
1480880394,5147a6f6b82e2e021e4ce3368d729868,Form,44,0,ua7,NULL,_REACTION_TIME_,141
1480880394,5147a6f6b82e2e021e4ce3368d729868,Form,45,0,ua8,NULL,amy_item=UA_role=falsecontrol,no
1480880394,5147a6f6b82e2e021e4ce3368d729868,Form,45,0,ua8,NULL,bob_item=UA_role=target,no
1480880394,5147a6f6b82e2e021e4ce3368d729868,Form,45,0,ua8,NULL,chris_item=UA_role=truecontrolSE,no
1480880394,5147a6f6b82e2e021e4ce3368d729868,Form,45,0,ua8,NULL,_REACTION_TIME_,143
1480880394,5147a6f6b82e2e021e4ce3368d729868,Form,46,0,ua9,NULL,amy_item=UA_role=truecontrolSE,no
1480880394,5147a6f6b82e2e021e4ce3368d729868,Form,46,0,ua9,NULL,bob_item=UA_role=target,no
1480880394,5147a6f6b82e2e021e4ce3368d729868,Form,46,0,ua9,NULL,chris_item=UA_role=falsecontrol,no
1480880394,5147a6f6b82e2e021e4ce3368d729868,Form,46,0,ua9,NULL,_REACTION_TIME_,151
#
# Results on Sunday December 04 2016 20:56:30 UTC.
# USER AGENT: Mozilla/5.0 (X11; Linux x86_64) AppleWebKit/537.36 (KHTML, like Gecko) Chrome/50.0.2661.102 Safari/537.36
# Design number was non-random = 7
#
# Columns below this comment are as follows:
# 1. Time results were received.
# 2. MD5 hash of participant's IP address.
# 3. Controller name.
# 4. Item number.
# 5. Element number.
# 6. Type.
# 7. Group.
# 8. Field name.
# 9. Field value.
1480884990,5147a6f6b82e2e021e4ce3368d729868,Form,1,0,instructions,NULL,,no
1480884990,5147a6f6b82e2e021e4ce3368d729868,Form,1,0,instructions,NULL,,no
1480884990,5147a6f6b82e2e021e4ce3368d729868,Form,1,0,instructions,NULL,,no
1480884990,5147a6f6b82e2e021e4ce3368d729868,Form,1,0,instructions,NULL,,no
1480884990,5147a6f6b82e2e021e4ce3368d729868,Form,1,0,instructions,NULL,,no
1480884990,5147a6f6b82e2e021e4ce3368d729868,Form,1,0,instructions,NULL,,no
1480884990,5147a6f6b82e2e021e4ce3368d729868,Form,1,0,instructions,NULL,,no
1480884990,5147a6f6b82e2e021e4ce3368d729868,Form,1,0,instructions,NULL,,no
1480884990,5147a6f6b82e2e021e4ce3368d729868,Form,1,0,instructions,NULL,,no
1480884990,5147a6f6b82e2e021e4ce3368d729868,Form,1,0,instructions,NULL,,no
1480884990,5147a6f6b82e2e021e4ce3368d729868,Form,1,0,instructions,NULL,,no
1480884990,5147a6f6b82e2e021e4ce3368d729868,Form,1,0,instructions,NULL,,no
1480884990,5147a6f6b82e2e021e4ce3368d729868,Form,1,0,instructions,NULL,_REACTION_TIME_,4217
1480884990,5147a6f6b82e2e021e4ce3368d729868,Form,2,0,training1,NULL,,no
1480884990,5147a6f6b82e2e021e4ce3368d729868,Form,2,0,training1,NULL,,no
1480884990,5147a6f6b82e2e021e4ce3368d729868,Form,2,0,training1,NULL,,no
1480884990,5147a6f6b82e2e021e4ce3368d729868,Form,2,0,training1,NULL,_REACTION_TIME_,1794
1480884990,5147a6f6b82e2e021e4ce3368d729868,Form,3,0,training2,NULL,,no
1480884990,5147a6f6b82e2e021e4ce3368d729868,Form,3,0,training2,NULL,,no
1480884990,5147a6f6b82e2e021e4ce3368d729868,Form,3,0,training2,NULL,,no
1480884990,5147a6f6b82e2e021e4ce3368d729868,Form,3,0,training2,NULL,_REACTION_TIME_,604
1480884990,5147a6f6b82e2e021e4ce3368d729868,Form,4,0,training3,NULL,,no
1480884990,5147a6f6b82e2e021e4ce3368d729868,Form,4,0,training3,NULL,,no
1480884990,5147a6f6b82e2e021e4ce3368d729868,Form,4,0,training3,NULL,,no
1480884990,5147a6f6b82e2e021e4ce3368d729868,Form,4,0,training3,NULL,_REACTION_TIME_,615
1480884990,5147a6f6b82e2e021e4ce3368d729868,Form,5,0,training4,NULL,,no
1480884990,5147a6f6b82e2e021e4ce3368d729868,Form,5,0,training4,NULL,,no
1480884990,5147a6f6b82e2e021e4ce3368d729868,Form,5,0,training4,NULL,,no
1480884990,5147a6f6b82e2e021e4ce3368d729868,Form,5,0,training4,NULL,_REACTION_TIME_,783
1480884990,5147a6f6b82e2e021e4ce3368d729868,Form,6,0,training5,NULL,,no
1480884990,5147a6f6b82e2e021e4ce3368d729868,Form,6,0,training5,NULL,,no
1480884990,5147a6f6b82e2e021e4ce3368d729868,Form,6,0,training5,NULL,,no
1480884990,5147a6f6b82e2e021e4ce3368d729868,Form,6,0,training5,NULL,_REACTION_TIME_,2647
1480884990,5147a6f6b82e2e021e4ce3368d729868,Form,82,0,lose0,NULL,amy_item=winFiller_role=UDtarget,no
1480884990,5147a6f6b82e2e021e4ce3368d729868,Form,82,0,lose0,NULL,bob_item=winFiller_role=falsecontrolSE,no
1480884990,5147a6f6b82e2e021e4ce3368d729868,Form,82,0,lose0,NULL,chris_item=winFiller_role=truecontrol,yes
1480884990,5147a6f6b82e2e021e4ce3368d729868,Form,82,0,lose0,NULL,_REACTION_TIME_,19983
1480884990,5147a6f6b82e2e021e4ce3368d729868,Form,20,0,oa3,NULL,amy_item=OA_role=falsecontrol,no
1480884990,5147a6f6b82e2e021e4ce3368d729868,Form,20,0,oa3,NULL,bob_item=OA_role=truecontrolSE,yes
1480884990,5147a6f6b82e2e021e4ce3368d729868,Form,20,0,oa3,NULL,chris_item=OA_role=target,no
1480884990,5147a6f6b82e2e021e4ce3368d729868,Form,20,0,oa3,NULL,_REACTION_TIME_,12185
1480884990,5147a6f6b82e2e021e4ce3368d729868,Form,48,0,ppf1,NULL,amy_item=TrueTrueFalseFiller_role=truePerfect,yes
1480884990,5147a6f6b82e2e021e4ce3368d729868,Form,48,0,ppf1,NULL,bob_item=TrueTrueFalseFiller_role=trueSE,yes
1480884990,5147a6f6b82e2e021e4ce3368d729868,Form,48,0,ppf1,NULL,chris_item=TrueTrueFalseFiller_role=false,no
1480884990,5147a6f6b82e2e021e4ce3368d729868,Form,48,0,ppf1,NULL,_REACTION_TIME_,6160
1480884990,5147a6f6b82e2e021e4ce3368d729868,Form,8,0,od1,NULL,amy_item=OD_role=target,no
1480884990,5147a6f6b82e2e021e4ce3368d729868,Form,8,0,od1,NULL,bob_item=OD_role=truecontrolSE,yes
1480884990,5147a6f6b82e2e021e4ce3368d729868,Form,8,0,od1,NULL,chris_item=OD_role=falsecontrol,no
1480884990,5147a6f6b82e2e021e4ce3368d729868,Form,8,0,od1,NULL,_REACTION_TIME_,8497
1480884990,5147a6f6b82e2e021e4ce3368d729868,Form,14,0,od7,NULL,amy_item=OD_role=truecontrolSE,yes
1480884990,5147a6f6b82e2e021e4ce3368d729868,Form,14,0,od7,NULL,bob_item=OD_role=target,no
1480884990,5147a6f6b82e2e021e4ce3368d729868,Form,14,0,od7,NULL,chris_item=OD_role=falsecontrol,no
1480884990,5147a6f6b82e2e021e4ce3368d729868,Form,14,0,od7,NULL,_REACTION_TIME_,6858
1480884990,5147a6f6b82e2e021e4ce3368d729868,Form,43,0,ua6,NULL,amy_item=UA_role=target,no
1480884990,5147a6f6b82e2e021e4ce3368d729868,Form,43,0,ua6,NULL,bob_item=UA_role=truecontrolSE,yes
1480884990,5147a6f6b82e2e021e4ce3368d729868,Form,43,0,ua6,NULL,chris_item=UA_role=falsecontrol,no
1480884990,5147a6f6b82e2e021e4ce3368d729868,Form,43,0,ua6,NULL,_REACTION_TIME_,7383
1480884990,5147a6f6b82e2e021e4ce3368d729868,Form,75,0,sym8,NULL,amy_item=whichSymbolFiller_role=truecontrolSE,no
1480884990,5147a6f6b82e2e021e4ce3368d729868,Form,75,0,sym8,NULL,bob_item=whichSymbolFiller_role=UDtargetTrue,no
1480884990,5147a6f6b82e2e021e4ce3368d729868,Form,75,0,sym8,NULL,chris_item=whichSymbolFiller_role=falsecontrol,no
1480884990,5147a6f6b82e2e021e4ce3368d729868,Form,75,0,sym8,NULL,_REACTION_TIME_,18357
1480884990,5147a6f6b82e2e021e4ce3368d729868,Form,83,0,lose1,NULL,amy_item=winFiller_role=UDtarget,no
1480884990,5147a6f6b82e2e021e4ce3368d729868,Form,83,0,lose1,NULL,bob_item=winFiller_role=truecontrol,yes
1480884990,5147a6f6b82e2e021e4ce3368d729868,Form,83,0,lose1,NULL,chris_item=winFiller_role=falsecontrolSE,no
1480884990,5147a6f6b82e2e021e4ce3368d729868,Form,83,0,lose1,NULL,_REACTION_TIME_,10509
1480884990,5147a6f6b82e2e021e4ce3368d729868,Form,15,0,od8,NULL,amy_item=OD_role=target,no
1480884990,5147a6f6b82e2e021e4ce3368d729868,Form,15,0,od8,NULL,bob_item=OD_role=falsecontrol,no
1480884990,5147a6f6b82e2e021e4ce3368d729868,Form,15,0,od8,NULL,chris_item=OD_role=truecontrolSE,yes
1480884990,5147a6f6b82e2e021e4ce3368d729868,Form,15,0,od8,NULL,_REACTION_TIME_,15120
1480884990,5147a6f6b82e2e021e4ce3368d729868,Form,12,0,od5,NULL,amy_item=OD_role=falsecontrol,no
1480884990,5147a6f6b82e2e021e4ce3368d729868,Form,12,0,od5,NULL,bob_item=OD_role=truecontrolSE,yes
1480884990,5147a6f6b82e2e021e4ce3368d729868,Form,12,0,od5,NULL,chris_item=OD_role=target,no
1480884990,5147a6f6b82e2e021e4ce3368d729868,Form,12,0,od5,NULL,_REACTION_TIME_,10739
1480884990,5147a6f6b82e2e021e4ce3368d729868,Form,50,0,ppf3,NULL,amy_item=TrueTrueFalseFiller_role=trueSE,yes
1480884990,5147a6f6b82e2e021e4ce3368d729868,Form,50,0,ppf3,NULL,bob_item=TrueTrueFalseFiller_role=truePerfect,yes
1480884990,5147a6f6b82e2e021e4ce3368d729868,Form,50,0,ppf3,NULL,chris_item=TrueTrueFalseFiller_role=false,no
1480884990,5147a6f6b82e2e021e4ce3368d729868,Form,50,0,ppf3,NULL,_REACTION_TIME_,10760
1480884990,5147a6f6b82e2e021e4ce3368d729868,Form,73,0,sym6,NULL,amy_item=whichSymbolFiller_role=UDtargetTrue,yes
1480884990,5147a6f6b82e2e021e4ce3368d729868,Form,73,0,sym6,NULL,bob_item=whichSymbolFiller_role=truecontrolSE,yes
1480884990,5147a6f6b82e2e021e4ce3368d729868,Form,73,0,sym6,NULL,chris_item=whichSymbolFiller_role=falsecontrol,no
1480884990,5147a6f6b82e2e021e4ce3368d729868,Form,73,0,sym6,NULL,_REACTION_TIME_,27469
1480884990,5147a6f6b82e2e021e4ce3368d729868,Form,71,0,sym4,NULL,amy_item=whichSymbolFiller_role=truecontrolSE,yes
1480884990,5147a6f6b82e2e021e4ce3368d729868,Form,71,0,sym4,NULL,bob_item=whichSymbolFiller_role=UDtargetTrue,yes
1480884990,5147a6f6b82e2e021e4ce3368d729868,Form,71,0,sym4,NULL,chris_item=whichSymbolFiller_role=falsecontrol,no
1480884990,5147a6f6b82e2e021e4ce3368d729868,Form,71,0,sym4,NULL,_REACTION_TIME_,6542
1480884990,5147a6f6b82e2e021e4ce3368d729868,Form,63,0,ppf16,NULL,amy_item=TrueTrueFalseFiller_role=trueSE,yes
1480884990,5147a6f6b82e2e021e4ce3368d729868,Form,63,0,ppf16,NULL,bob_item=TrueTrueFalseFiller_role=false,no
1480884990,5147a6f6b82e2e021e4ce3368d729868,Form,63,0,ppf16,NULL,chris_item=TrueTrueFalseFiller_role=truePerfect,yes
1480884990,5147a6f6b82e2e021e4ce3368d729868,Form,63,0,ppf16,NULL,_REACTION_TIME_,5934
1480884990,5147a6f6b82e2e021e4ce3368d729868,Form,22,0,oa5,NULL,amy_item=OA_role=truecontrolSE,yes
1480884990,5147a6f6b82e2e021e4ce3368d729868,Form,22,0,oa5,NULL,bob_item=OA_role=target,no
1480884990,5147a6f6b82e2e021e4ce3368d729868,Form,22,0,oa5,NULL,chris_item=OA_role=falsecontrol,no
1480884990,5147a6f6b82e2e021e4ce3368d729868,Form,22,0,oa5,NULL,_REACTION_TIME_,6736
1480884990,5147a6f6b82e2e021e4ce3368d729868,Form,32,0,ud5,NULL,amy_item=UD_role=falsecontrol,no
1480884990,5147a6f6b82e2e021e4ce3368d729868,Form,32,0,ud5,NULL,bob_item=UD_role=truecontrolSE,yes
1480884990,5147a6f6b82e2e021e4ce3368d729868,Form,32,0,ud5,NULL,chris_item=UD_role=target,no
1480884990,5147a6f6b82e2e021e4ce3368d729868,Form,32,0,ud5,NULL,_REACTION_TIME_,17439
1480884990,5147a6f6b82e2e021e4ce3368d729868,Form,38,0,ua1,NULL,amy_item=UA_role=target,no
1480884990,5147a6f6b82e2e021e4ce3368d729868,Form,38,0,ua1,NULL,bob_item=UA_role=falsecontrol,no
1480884990,5147a6f6b82e2e021e4ce3368d729868,Form,38,0,ua1,NULL,chris_item=UA_role=truecontrolSE,yes
1480884990,5147a6f6b82e2e021e4ce3368d729868,Form,38,0,ua1,NULL,_REACTION_TIME_,8834
1480884990,5147a6f6b82e2e021e4ce3368d729868,Form,58,0,ppf11,NULL,amy_item=TrueTrueFalseFiller_role=trueSE,yes
1480884990,5147a6f6b82e2e021e4ce3368d729868,Form,58,0,ppf11,NULL,bob_item=TrueTrueFalseFiller_role=false,no
1480884990,5147a6f6b82e2e021e4ce3368d729868,Form,58,0,ppf11,NULL,chris_item=TrueTrueFalseFiller_role=truePerfect,yes
1480884990,5147a6f6b82e2e021e4ce3368d729868,Form,58,0,ppf11,NULL,_REACTION_TIME_,7204
1480884990,5147a6f6b82e2e021e4ce3368d729868,Form,44,0,ua7,NULL,amy_item=UA_role=falsecontrol,no
1480884990,5147a6f6b82e2e021e4ce3368d729868,Form,44,0,ua7,NULL,bob_item=UA_role=truecontrolSE,yes
1480884990,5147a6f6b82e2e021e4ce3368d729868,Form,44,0,ua7,NULL,chris_item=UA_role=target,no
1480884990,5147a6f6b82e2e021e4ce3368d729868,Form,44,0,ua7,NULL,_REACTION_TIME_,16750
1480884990,5147a6f6b82e2e021e4ce3368d729868,Form,77,0,win0,NULL,amy_item=winFiller_role=falsecontrol,no
1480884990,5147a6f6b82e2e021e4ce3368d729868,Form,77,0,win0,NULL,bob_item=winFiller_role=truecontrolSE,yes
1480884990,5147a6f6b82e2e021e4ce3368d729868,Form,77,0,win0,NULL,chris_item=winFiller_role=UDtarget,no
1480884990,5147a6f6b82e2e021e4ce3368d729868,Form,77,0,win0,NULL,_REACTION_TIME_,8692
1480884990,5147a6f6b82e2e021e4ce3368d729868,Form,52,0,ppf5,NULL,amy_item=TrueTrueFalseFiller_role=false,no
1480884990,5147a6f6b82e2e021e4ce3368d729868,Form,52,0,ppf5,NULL,bob_item=TrueTrueFalseFiller_role=truePerfect,yes
1480884990,5147a6f6b82e2e021e4ce3368d729868,Form,52,0,ppf5,NULL,chris_item=TrueTrueFalseFiller_role=trueSE,yes
1480884990,5147a6f6b82e2e021e4ce3368d729868,Form,52,0,ppf5,NULL,_REACTION_TIME_,11425
1480884990,5147a6f6b82e2e021e4ce3368d729868,Form,64,0,ppf17,NULL,amy_item=TrueTrueFalseFiller_role=trueSE,yes
1480884990,5147a6f6b82e2e021e4ce3368d729868,Form,64,0,ppf17,NULL,bob_item=TrueTrueFalseFiller_role=false,no
1480884990,5147a6f6b82e2e021e4ce3368d729868,Form,64,0,ppf17,NULL,chris_item=TrueTrueFalseFiller_role=truePerfect,yes
1480884990,5147a6f6b82e2e021e4ce3368d729868,Form,64,0,ppf17,NULL,_REACTION_TIME_,8238
1480884990,5147a6f6b82e2e021e4ce3368d729868,Form,80,0,win3,NULL,amy_item=winFiller_role=UDtarget,no
1480884990,5147a6f6b82e2e021e4ce3368d729868,Form,80,0,win3,NULL,bob_item=winFiller_role=falsecontrol,no
1480884990,5147a6f6b82e2e021e4ce3368d729868,Form,80,0,win3,NULL,chris_item=winFiller_role=truecontrolSE,yes
1480884990,5147a6f6b82e2e021e4ce3368d729868,Form,80,0,win3,NULL,_REACTION_TIME_,14679
1480884990,5147a6f6b82e2e021e4ce3368d729868,Form,46,0,ua9,NULL,amy_item=UA_role=truecontrolSE,yes
1480884990,5147a6f6b82e2e021e4ce3368d729868,Form,46,0,ua9,NULL,bob_item=UA_role=target,no
1480884990,5147a6f6b82e2e021e4ce3368d729868,Form,46,0,ua9,NULL,chris_item=UA_role=falsecontrol,no
1480884990,5147a6f6b82e2e021e4ce3368d729868,Form,46,0,ua9,NULL,_REACTION_TIME_,6722
1480884990,5147a6f6b82e2e021e4ce3368d729868,Form,25,0,oa8,NULL,amy_item=OA_role=target,no
1480884990,5147a6f6b82e2e021e4ce3368d729868,Form,25,0,oa8,NULL,bob_item=OA_role=falsecontrol,no
1480884990,5147a6f6b82e2e021e4ce3368d729868,Form,25,0,oa8,NULL,chris_item=OA_role=truecontrolSE,yes
1480884990,5147a6f6b82e2e021e4ce3368d729868,Form,25,0,oa8,NULL,_REACTION_TIME_,5309
1480884990,5147a6f6b82e2e021e4ce3368d729868,Form,39,0,ua2,NULL,amy_item=UA_role=falsecontrol,no
1480884990,5147a6f6b82e2e021e4ce3368d729868,Form,39,0,ua2,NULL,bob_item=UA_role=target,no
1480884990,5147a6f6b82e2e021e4ce3368d729868,Form,39,0,ua2,NULL,chris_item=UA_role=truecontrolSE,yes
1480884990,5147a6f6b82e2e021e4ce3368d729868,Form,39,0,ua2,NULL,_REACTION_TIME_,5342
1480884990,5147a6f6b82e2e021e4ce3368d729868,Form,37,0,ua0,NULL,amy_item=UA_role=falsecontrol,no
1480884990,5147a6f6b82e2e021e4ce3368d729868,Form,37,0,ua0,NULL,bob_item=UA_role=target,no
1480884990,5147a6f6b82e2e021e4ce3368d729868,Form,37,0,ua0,NULL,chris_item=UA_role=truecontrolSE,yes
1480884990,5147a6f6b82e2e021e4ce3368d729868,Form,37,0,ua0,NULL,_REACTION_TIME_,6598
1480884990,5147a6f6b82e2e021e4ce3368d729868,Form,79,0,win2,NULL,amy_item=winFiller_role=falsecontrol,no
1480884990,5147a6f6b82e2e021e4ce3368d729868,Form,79,0,win2,NULL,bob_item=winFiller_role=UDtarget,no
1480884990,5147a6f6b82e2e021e4ce3368d729868,Form,79,0,win2,NULL,chris_item=winFiller_role=truecontrolSE,yes
1480884990,5147a6f6b82e2e021e4ce3368d729868,Form,79,0,win2,NULL,_REACTION_TIME_,8482
1480884990,5147a6f6b82e2e021e4ce3368d729868,Form,10,0,od3,NULL,amy_item=OD_role=target,no
1480884990,5147a6f6b82e2e021e4ce3368d729868,Form,10,0,od3,NULL,bob_item=OD_role=falsecontrol,no
1480884990,5147a6f6b82e2e021e4ce3368d729868,Form,10,0,od3,NULL,chris_item=OD_role=truecontrolSE,yes
1480884990,5147a6f6b82e2e021e4ce3368d729868,Form,10,0,od3,NULL,_REACTION_TIME_,10159
1480884990,5147a6f6b82e2e021e4ce3368d729868,Form,18,0,oa1,NULL,amy_item=OA_role=truecontrolSE,yes
1480884990,5147a6f6b82e2e021e4ce3368d729868,Form,18,0,oa1,NULL,bob_item=OA_role=target,no
1480884990,5147a6f6b82e2e021e4ce3368d729868,Form,18,0,oa1,NULL,chris_item=OA_role=falsecontrol,no
1480884990,5147a6f6b82e2e021e4ce3368d729868,Form,18,0,oa1,NULL,_REACTION_TIME_,8138
1480884990,5147a6f6b82e2e021e4ce3368d729868,Form,30,0,ud3,NULL,amy_item=UD_role=truecontrolSE,yes
1480884990,5147a6f6b82e2e021e4ce3368d729868,Form,30,0,ud3,NULL,bob_item=UD_role=target,yes
1480884990,5147a6f6b82e2e021e4ce3368d729868,Form,30,0,ud3,NULL,chris_item=UD_role=falsecontrol,no
1480884990,5147a6f6b82e2e021e4ce3368d729868,Form,30,0,ud3,NULL,_REACTION_TIME_,6507
1480884990,5147a6f6b82e2e021e4ce3368d729868,Form,60,0,ppf13,NULL,amy_item=TrueTrueFalseFiller_role=truePerfect,yes
1480884990,5147a6f6b82e2e021e4ce3368d729868,Form,60,0,ppf13,NULL,bob_item=TrueTrueFalseFiller_role=false,no
1480884990,5147a6f6b82e2e021e4ce3368d729868,Form,60,0,ppf13,NULL,chris_item=TrueTrueFalseFiller_role=trueSE,yes
1480884990,5147a6f6b82e2e021e4ce3368d729868,Form,60,0,ppf13,NULL,_REACTION_TIME_,7841
1480884990,5147a6f6b82e2e021e4ce3368d729868,Form,13,0,od6,NULL,amy_item=OD_role=truecontrolSE,yes
1480884990,5147a6f6b82e2e021e4ce3368d729868,Form,13,0,od6,NULL,bob_item=OD_role=falsecontrol,no
1480884990,5147a6f6b82e2e021e4ce3368d729868,Form,13,0,od6,NULL,chris_item=OD_role=target,no
1480884990,5147a6f6b82e2e021e4ce3368d729868,Form,13,0,od6,NULL,_REACTION_TIME_,7876
1480884990,5147a6f6b82e2e021e4ce3368d729868,Form,7,0,od0,NULL,amy_item=OD_role=falsecontrol,no
1480884990,5147a6f6b82e2e021e4ce3368d729868,Form,7,0,od0,NULL,bob_item=OD_role=truecontrolSE,yes
1480884990,5147a6f6b82e2e021e4ce3368d729868,Form,7,0,od0,NULL,chris_item=OD_role=target,no
1480884990,5147a6f6b82e2e021e4ce3368d729868,Form,7,0,od0,NULL,_REACTION_TIME_,9998
1480884990,5147a6f6b82e2e021e4ce3368d729868,Form,19,0,oa2,NULL,amy_item=OA_role=target,no
1480884990,5147a6f6b82e2e021e4ce3368d729868,Form,19,0,oa2,NULL,bob_item=OA_role=falsecontrol,no
1480884990,5147a6f6b82e2e021e4ce3368d729868,Form,19,0,oa2,NULL,chris_item=OA_role=truecontrolSE,yes
1480884990,5147a6f6b82e2e021e4ce3368d729868,Form,19,0,oa2,NULL,_REACTION_TIME_,7946
1480884990,5147a6f6b82e2e021e4ce3368d729868,Form,51,0,ppf4,NULL,amy_item=TrueTrueFalseFiller_role=false,no
1480884990,5147a6f6b82e2e021e4ce3368d729868,Form,51,0,ppf4,NULL,bob_item=TrueTrueFalseFiller_role=trueSE,yes
1480884990,5147a6f6b82e2e021e4ce3368d729868,Form,51,0,ppf4,NULL,chris_item=TrueTrueFalseFiller_role=truePerfect,yes
1480884990,5147a6f6b82e2e021e4ce3368d729868,Form,51,0,ppf4,NULL,_REACTION_TIME_,7208
1480884990,5147a6f6b82e2e021e4ce3368d729868,Form,21,0,oa4,NULL,amy_item=OA_role=truecontrolSE,yes
1480884990,5147a6f6b82e2e021e4ce3368d729868,Form,21,0,oa4,NULL,bob_item=OA_role=falsecontrol,no
1480884990,5147a6f6b82e2e021e4ce3368d729868,Form,21,0,oa4,NULL,chris_item=OA_role=target,no
1480884990,5147a6f6b82e2e021e4ce3368d729868,Form,21,0,oa4,NULL,_REACTION_TIME_,7258
1480884990,5147a6f6b82e2e021e4ce3368d729868,Form,29,0,ud2,NULL,amy_item=UD_role=truecontrolSE,yes
1480884990,5147a6f6b82e2e021e4ce3368d729868,Form,29,0,ud2,NULL,bob_item=UD_role=target,no
1480884990,5147a6f6b82e2e021e4ce3368d729868,Form,29,0,ud2,NULL,chris_item=UD_role=falsecontrol,no
1480884990,5147a6f6b82e2e021e4ce3368d729868,Form,29,0,ud2,NULL,_REACTION_TIME_,7382
1480884990,5147a6f6b82e2e021e4ce3368d729868,Form,78,0,win1,NULL,amy_item=winFiller_role=truecontrolSE,yes
1480884990,5147a6f6b82e2e021e4ce3368d729868,Form,78,0,win1,NULL,bob_item=winFiller_role=falsecontrol,no
1480884990,5147a6f6b82e2e021e4ce3368d729868,Form,78,0,win1,NULL,chris_item=winFiller_role=UDtarget,no
1480884990,5147a6f6b82e2e021e4ce3368d729868,Form,78,0,win1,NULL,_REACTION_TIME_,6898
1480884990,5147a6f6b82e2e021e4ce3368d729868,Form,67,0,sym0,NULL,amy_item=whichSymbolFiller_role=UDtargetTrue,yes
1480884990,5147a6f6b82e2e021e4ce3368d729868,Form,67,0,sym0,NULL,bob_item=whichSymbolFiller_role=falsecontrol,no
1480884990,5147a6f6b82e2e021e4ce3368d729868,Form,67,0,sym0,NULL,chris_item=whichSymbolFiller_role=truecontrolSE,yes
1480884990,5147a6f6b82e2e021e4ce3368d729868,Form,67,0,sym0,NULL,_REACTION_TIME_,17694
1480884990,5147a6f6b82e2e021e4ce3368d729868,Form,53,0,ppf6,NULL,amy_item=TrueTrueFalseFiller_role=false,no
1480884990,5147a6f6b82e2e021e4ce3368d729868,Form,53,0,ppf6,NULL,bob_item=TrueTrueFalseFiller_role=truePerfect,yes
1480884990,5147a6f6b82e2e021e4ce3368d729868,Form,53,0,ppf6,NULL,chris_item=TrueTrueFalseFiller_role=trueSE,yes
1480884990,5147a6f6b82e2e021e4ce3368d729868,Form,53,0,ppf6,NULL,_REACTION_TIME_,6529
1480884990,5147a6f6b82e2e021e4ce3368d729868,Form,59,0,ppf12,NULL,amy_item=TrueTrueFalseFiller_role=false,no
1480884990,5147a6f6b82e2e021e4ce3368d729868,Form,59,0,ppf12,NULL,bob_item=TrueTrueFalseFiller_role=truePerfect,yes
1480884990,5147a6f6b82e2e021e4ce3368d729868,Form,59,0,ppf12,NULL,chris_item=TrueTrueFalseFiller_role=trueSE,yes
1480884990,5147a6f6b82e2e021e4ce3368d729868,Form,59,0,ppf12,NULL,_REACTION_TIME_,6746
1480884990,5147a6f6b82e2e021e4ce3368d729868,Form,41,0,ua4,NULL,amy_item=UA_role=falsecontrol,no
1480884990,5147a6f6b82e2e021e4ce3368d729868,Form,41,0,ua4,NULL,bob_item=UA_role=truecontrolSE,yes
1480884990,5147a6f6b82e2e021e4ce3368d729868,Form,41,0,ua4,NULL,chris_item=UA_role=target,no
1480884990,5147a6f6b82e2e021e4ce3368d729868,Form,41,0,ua4,NULL,_REACTION_TIME_,15090
1480884990,5147a6f6b82e2e021e4ce3368d729868,Form,74,0,sym7,NULL,amy_item=whichSymbolFiller_role=falsecontrol,no
1480884990,5147a6f6b82e2e021e4ce3368d729868,Form,74,0,sym7,NULL,bob_item=whichSymbolFiller_role=truecontrolSE,yes
1480884990,5147a6f6b82e2e021e4ce3368d729868,Form,74,0,sym7,NULL,chris_item=whichSymbolFiller_role=UDtargetTrue,yes
1480884990,5147a6f6b82e2e021e4ce3368d729868,Form,74,0,sym7,NULL,_REACTION_TIME_,8022
1480884990,5147a6f6b82e2e021e4ce3368d729868,Form,56,0,ppf9,NULL,amy_item=TrueTrueFalseFiller_role=truePerfect,yes
1480884990,5147a6f6b82e2e021e4ce3368d729868,Form,56,0,ppf9,NULL,bob_item=TrueTrueFalseFiller_role=trueSE,yes
1480884990,5147a6f6b82e2e021e4ce3368d729868,Form,56,0,ppf9,NULL,chris_item=TrueTrueFalseFiller_role=false,no
1480884990,5147a6f6b82e2e021e4ce3368d729868,Form,56,0,ppf9,NULL,_REACTION_TIME_,4788
1480884990,5147a6f6b82e2e021e4ce3368d729868,Form,47,0,ppf0,NULL,amy_item=TrueTrueFalseFiller_role=false,no
1480884990,5147a6f6b82e2e021e4ce3368d729868,Form,47,0,ppf0,NULL,bob_item=TrueTrueFalseFiller_role=truePerfect,yes
1480884990,5147a6f6b82e2e021e4ce3368d729868,Form,47,0,ppf0,NULL,chris_item=TrueTrueFalseFiller_role=trueSE,yes
1480884990,5147a6f6b82e2e021e4ce3368d729868,Form,47,0,ppf0,NULL,_REACTION_TIME_,5225
1480884990,5147a6f6b82e2e021e4ce3368d729868,Form,26,0,oa9,NULL,amy_item=OA_role=truecontrolSE,yes
1480884990,5147a6f6b82e2e021e4ce3368d729868,Form,26,0,oa9,NULL,bob_item=OA_role=falsecontrol,no
1480884990,5147a6f6b82e2e021e4ce3368d729868,Form,26,0,oa9,NULL,chris_item=OA_role=target,no
1480884990,5147a6f6b82e2e021e4ce3368d729868,Form,26,0,oa9,NULL,_REACTION_TIME_,5880
1480884990,5147a6f6b82e2e021e4ce3368d729868,Form,11,0,od4,NULL,amy_item=OD_role=falsecontrol,no
1480884990,5147a6f6b82e2e021e4ce3368d729868,Form,11,0,od4,NULL,bob_item=OD_role=truecontrolSE,yes
1480884990,5147a6f6b82e2e021e4ce3368d729868,Form,11,0,od4,NULL,chris_item=OD_role=target,no
1480884990,5147a6f6b82e2e021e4ce3368d729868,Form,11,0,od4,NULL,_REACTION_TIME_,4840
1480884990,5147a6f6b82e2e021e4ce3368d729868,Form,61,0,ppf14,NULL,amy_item=TrueTrueFalseFiller_role=false,no
1480884990,5147a6f6b82e2e021e4ce3368d729868,Form,61,0,ppf14,NULL,bob_item=TrueTrueFalseFiller_role=truePerfect,yes
1480884990,5147a6f6b82e2e021e4ce3368d729868,Form,61,0,ppf14,NULL,chris_item=TrueTrueFalseFiller_role=trueSE,yes
1480884990,5147a6f6b82e2e021e4ce3368d729868,Form,61,0,ppf14,NULL,_REACTION_TIME_,5031
1480884990,5147a6f6b82e2e021e4ce3368d729868,Form,24,0,oa7,NULL,amy_item=OA_role=falsecontrol,no
1480884990,5147a6f6b82e2e021e4ce3368d729868,Form,24,0,oa7,NULL,bob_item=OA_role=truecontrolSE,yes
1480884990,5147a6f6b82e2e021e4ce3368d729868,Form,24,0,oa7,NULL,chris_item=OA_role=target,no
1480884990,5147a6f6b82e2e021e4ce3368d729868,Form,24,0,oa7,NULL,_REACTION_TIME_,12704
1480884990,5147a6f6b82e2e021e4ce3368d729868,Form,68,0,sym1,NULL,amy_item=whichSymbolFiller_role=truecontrolSE,yes
1480884990,5147a6f6b82e2e021e4ce3368d729868,Form,68,0,sym1,NULL,bob_item=whichSymbolFiller_role=falsecontrol,no
1480884990,5147a6f6b82e2e021e4ce3368d729868,Form,68,0,sym1,NULL,chris_item=whichSymbolFiller_role=UDtargetTrue,yes
1480884990,5147a6f6b82e2e021e4ce3368d729868,Form,68,0,sym1,NULL,_REACTION_TIME_,20156
1480884990,5147a6f6b82e2e021e4ce3368d729868,Form,81,0,win4,NULL,amy_item=winFiller_role=UDtarget,no
1480884990,5147a6f6b82e2e021e4ce3368d729868,Form,81,0,win4,NULL,bob_item=winFiller_role=falsecontrol,no
1480884990,5147a6f6b82e2e021e4ce3368d729868,Form,81,0,win4,NULL,chris_item=winFiller_role=truecontrolSE,yes
1480884990,5147a6f6b82e2e021e4ce3368d729868,Form,81,0,win4,NULL,_REACTION_TIME_,9742
1480884990,5147a6f6b82e2e021e4ce3368d729868,Form,49,0,ppf2,NULL,amy_item=TrueTrueFalseFiller_role=trueSE,yes
1480884990,5147a6f6b82e2e021e4ce3368d729868,Form,49,0,ppf2,NULL,bob_item=TrueTrueFalseFiller_role=truePerfect,yes
1480884990,5147a6f6b82e2e021e4ce3368d729868,Form,49,0,ppf2,NULL,chris_item=TrueTrueFalseFiller_role=false,no
1480884990,5147a6f6b82e2e021e4ce3368d729868,Form,49,0,ppf2,NULL,_REACTION_TIME_,8138
1480884990,5147a6f6b82e2e021e4ce3368d729868,Form,85,0,lose3,NULL,amy_item=winFiller_role=UDtarget,no
1480884990,5147a6f6b82e2e021e4ce3368d729868,Form,85,0,lose3,NULL,bob_item=winFiller_role=falsecontrolSE,no
1480884990,5147a6f6b82e2e021e4ce3368d729868,Form,85,0,lose3,NULL,chris_item=winFiller_role=truecontrol,yes
1480884990,5147a6f6b82e2e021e4ce3368d729868,Form,85,0,lose3,NULL,_REACTION_TIME_,9516
1480884990,5147a6f6b82e2e021e4ce3368d729868,Form,72,0,sym5,NULL,amy_item=whichSymbolFiller_role=falsecontrol,no
1480884990,5147a6f6b82e2e021e4ce3368d729868,Form,72,0,sym5,NULL,bob_item=whichSymbolFiller_role=UDtargetTrue,yes
1480884990,5147a6f6b82e2e021e4ce3368d729868,Form,72,0,sym5,NULL,chris_item=whichSymbolFiller_role=truecontrolSE,yes
1480884990,5147a6f6b82e2e021e4ce3368d729868,Form,72,0,sym5,NULL,_REACTION_TIME_,23754
1480884990,5147a6f6b82e2e021e4ce3368d729868,Form,23,0,oa6,NULL,amy_item=OA_role=falsecontrol,no
1480884990,5147a6f6b82e2e021e4ce3368d729868,Form,23,0,oa6,NULL,bob_item=OA_role=truecontrolSE,yes
1480884990,5147a6f6b82e2e021e4ce3368d729868,Form,23,0,oa6,NULL,chris_item=OA_role=target,no
1480884990,5147a6f6b82e2e021e4ce3368d729868,Form,23,0,oa6,NULL,_REACTION_TIME_,5194
1480884990,5147a6f6b82e2e021e4ce3368d729868,Form,70,0,sym3,NULL,amy_item=whichSymbolFiller_role=truecontrolSE,yes
1480884990,5147a6f6b82e2e021e4ce3368d729868,Form,70,0,sym3,NULL,bob_item=whichSymbolFiller_role=UDtargetTrue,yes
1480884990,5147a6f6b82e2e021e4ce3368d729868,Form,70,0,sym3,NULL,chris_item=whichSymbolFiller_role=falsecontrol,no
1480884990,5147a6f6b82e2e021e4ce3368d729868,Form,70,0,sym3,NULL,_REACTION_TIME_,5724
1480884990,5147a6f6b82e2e021e4ce3368d729868,Form,42,0,ua5,NULL,amy_item=UA_role=falsecontrol,no
1480884990,5147a6f6b82e2e021e4ce3368d729868,Form,42,0,ua5,NULL,bob_item=UA_role=truecontrolSE,yes
1480884990,5147a6f6b82e2e021e4ce3368d729868,Form,42,0,ua5,NULL,chris_item=UA_role=target,no
1480884990,5147a6f6b82e2e021e4ce3368d729868,Form,42,0,ua5,NULL,_REACTION_TIME_,9270
1480884990,5147a6f6b82e2e021e4ce3368d729868,Form,28,0,ud1,NULL,amy_item=UD_role=falsecontrol,no
1480884990,5147a6f6b82e2e021e4ce3368d729868,Form,28,0,ud1,NULL,bob_item=UD_role=truecontrolSE,yes
1480884990,5147a6f6b82e2e021e4ce3368d729868,Form,28,0,ud1,NULL,chris_item=UD_role=target,no
1480884990,5147a6f6b82e2e021e4ce3368d729868,Form,28,0,ud1,NULL,_REACTION_TIME_,4913
1480884990,5147a6f6b82e2e021e4ce3368d729868,Form,57,0,ppf10,NULL,amy_item=TrueTrueFalseFiller_role=trueSE,yes
1480884990,5147a6f6b82e2e021e4ce3368d729868,Form,57,0,ppf10,NULL,bob_item=TrueTrueFalseFiller_role=truePerfect,yes
1480884990,5147a6f6b82e2e021e4ce3368d729868,Form,57,0,ppf10,NULL,chris_item=TrueTrueFalseFiller_role=false,no
1480884990,5147a6f6b82e2e021e4ce3368d729868,Form,57,0,ppf10,NULL,_REACTION_TIME_,4528
1480884990,5147a6f6b82e2e021e4ce3368d729868,Form,55,0,ppf8,NULL,amy_item=TrueTrueFalseFiller_role=truePerfect,yes
1480884990,5147a6f6b82e2e021e4ce3368d729868,Form,55,0,ppf8,NULL,bob_item=TrueTrueFalseFiller_role=false,no
1480884990,5147a6f6b82e2e021e4ce3368d729868,Form,55,0,ppf8,NULL,chris_item=TrueTrueFalseFiller_role=trueSE,yes
1480884990,5147a6f6b82e2e021e4ce3368d729868,Form,55,0,ppf8,NULL,_REACTION_TIME_,5569
1480884990,5147a6f6b82e2e021e4ce3368d729868,Form,33,0,ud6,NULL,amy_item=UD_role=truecontrolSE,yes
1480884990,5147a6f6b82e2e021e4ce3368d729868,Form,33,0,ud6,NULL,bob_item=UD_role=falsecontrol,no
1480884990,5147a6f6b82e2e021e4ce3368d729868,Form,33,0,ud6,NULL,chris_item=UD_role=target,no
1480884990,5147a6f6b82e2e021e4ce3368d729868,Form,33,0,ud6,NULL,_REACTION_TIME_,6333
1480884990,5147a6f6b82e2e021e4ce3368d729868,Form,27,0,ud0,NULL,amy_item=UD_role=truecontrolSE,yes
1480884990,5147a6f6b82e2e021e4ce3368d729868,Form,27,0,ud0,NULL,bob_item=UD_role=target,no
1480884990,5147a6f6b82e2e021e4ce3368d729868,Form,27,0,ud0,NULL,chris_item=UD_role=falsecontrol,no
1480884990,5147a6f6b82e2e021e4ce3368d729868,Form,27,0,ud0,NULL,_REACTION_TIME_,11278
1480884990,5147a6f6b82e2e021e4ce3368d729868,Form,17,0,oa0,NULL,amy_item=OA_role=target,no
1480884990,5147a6f6b82e2e021e4ce3368d729868,Form,17,0,oa0,NULL,bob_item=OA_role=falsecontrol,no
1480884990,5147a6f6b82e2e021e4ce3368d729868,Form,17,0,oa0,NULL,chris_item=OA_role=truecontrolSE,yes
1480884990,5147a6f6b82e2e021e4ce3368d729868,Form,17,0,oa0,NULL,_REACTION_TIME_,4839
1480884990,5147a6f6b82e2e021e4ce3368d729868,Form,36,0,ud9,NULL,amy_item=UD_role=truecontrolSE,yes
1480884990,5147a6f6b82e2e021e4ce3368d729868,Form,36,0,ud9,NULL,bob_item=UD_role=falsecontrol,no
1480884990,5147a6f6b82e2e021e4ce3368d729868,Form,36,0,ud9,NULL,chris_item=UD_role=target,no
1480884990,5147a6f6b82e2e021e4ce3368d729868,Form,36,0,ud9,NULL,_REACTION_TIME_,4710
1480884990,5147a6f6b82e2e021e4ce3368d729868,Form,35,0,ud8,NULL,amy_item=UD_role=truecontrolSE,yes
1480884990,5147a6f6b82e2e021e4ce3368d729868,Form,35,0,ud8,NULL,bob_item=UD_role=target,no
1480884990,5147a6f6b82e2e021e4ce3368d729868,Form,35,0,ud8,NULL,chris_item=UD_role=falsecontrol,no
1480884990,5147a6f6b82e2e021e4ce3368d729868,Form,35,0,ud8,NULL,_REACTION_TIME_,5295
1480884990,5147a6f6b82e2e021e4ce3368d729868,Form,76,0,sym9,NULL,amy_item=whichSymbolFiller_role=truecontrolSE,yes
1480884990,5147a6f6b82e2e021e4ce3368d729868,Form,76,0,sym9,NULL,bob_item=whichSymbolFiller_role=falsecontrol,no
1480884990,5147a6f6b82e2e021e4ce3368d729868,Form,76,0,sym9,NULL,chris_item=whichSymbolFiller_role=UDtargetTrue,yes
1480884990,5147a6f6b82e2e021e4ce3368d729868,Form,76,0,sym9,NULL,_REACTION_TIME_,7731
1480884990,5147a6f6b82e2e021e4ce3368d729868,Form,54,0,ppf7,NULL,amy_item=TrueTrueFalseFiller_role=truePerfect,yes
1480884990,5147a6f6b82e2e021e4ce3368d729868,Form,54,0,ppf7,NULL,bob_item=TrueTrueFalseFiller_role=false,no
1480884990,5147a6f6b82e2e021e4ce3368d729868,Form,54,0,ppf7,NULL,chris_item=TrueTrueFalseFiller_role=trueSE,yes
1480884990,5147a6f6b82e2e021e4ce3368d729868,Form,54,0,ppf7,NULL,_REACTION_TIME_,5488
1480884990,5147a6f6b82e2e021e4ce3368d729868,Form,84,0,lose2,NULL,amy_item=winFiller_role=UDtarget,no
1480884990,5147a6f6b82e2e021e4ce3368d729868,Form,84,0,lose2,NULL,bob_item=winFiller_role=falsecontrolSE,no
1480884990,5147a6f6b82e2e021e4ce3368d729868,Form,84,0,lose2,NULL,chris_item=winFiller_role=truecontrol,yes
1480884990,5147a6f6b82e2e021e4ce3368d729868,Form,84,0,lose2,NULL,_REACTION_TIME_,14090
1480884990,5147a6f6b82e2e021e4ce3368d729868,Form,86,0,lose4,NULL,amy_item=winFiller_role=truecontrol,yes
1480884990,5147a6f6b82e2e021e4ce3368d729868,Form,86,0,lose4,NULL,bob_item=winFiller_role=falsecontrolSE,no
1480884990,5147a6f6b82e2e021e4ce3368d729868,Form,86,0,lose4,NULL,chris_item=winFiller_role=UDtarget,no
1480884990,5147a6f6b82e2e021e4ce3368d729868,Form,86,0,lose4,NULL,_REACTION_TIME_,11248
1480884990,5147a6f6b82e2e021e4ce3368d729868,Form,45,0,ua8,NULL,amy_item=UA_role=falsecontrol,no
1480884990,5147a6f6b82e2e021e4ce3368d729868,Form,45,0,ua8,NULL,bob_item=UA_role=target,no
1480884990,5147a6f6b82e2e021e4ce3368d729868,Form,45,0,ua8,NULL,chris_item=UA_role=truecontrolSE,yes
1480884990,5147a6f6b82e2e021e4ce3368d729868,Form,45,0,ua8,NULL,_REACTION_TIME_,7341
1480884990,5147a6f6b82e2e021e4ce3368d729868,Form,66,0,ppf19,NULL,amy_item=TrueTrueFalseFiller_role=trueSE,yes
1480884990,5147a6f6b82e2e021e4ce3368d729868,Form,66,0,ppf19,NULL,bob_item=TrueTrueFalseFiller_role=false,no
1480884990,5147a6f6b82e2e021e4ce3368d729868,Form,66,0,ppf19,NULL,chris_item=TrueTrueFalseFiller_role=truePerfect,yes
1480884990,5147a6f6b82e2e021e4ce3368d729868,Form,66,0,ppf19,NULL,_REACTION_TIME_,7449
1480884990,5147a6f6b82e2e021e4ce3368d729868,Form,16,0,od9,NULL,amy_item=OD_role=truecontrolSE,yes
1480884990,5147a6f6b82e2e021e4ce3368d729868,Form,16,0,od9,NULL,bob_item=OD_role=falsecontrol,no
1480884990,5147a6f6b82e2e021e4ce3368d729868,Form,16,0,od9,NULL,chris_item=OD_role=target,no
1480884990,5147a6f6b82e2e021e4ce3368d729868,Form,16,0,od9,NULL,_REACTION_TIME_,9576
1480884990,5147a6f6b82e2e021e4ce3368d729868,Form,31,0,ud4,NULL,amy_item=UD_role=target,no
1480884990,5147a6f6b82e2e021e4ce3368d729868,Form,31,0,ud4,NULL,bob_item=UD_role=truecontrolSE,yes
1480884990,5147a6f6b82e2e021e4ce3368d729868,Form,31,0,ud4,NULL,chris_item=UD_role=falsecontrol,no
1480884990,5147a6f6b82e2e021e4ce3368d729868,Form,31,0,ud4,NULL,_REACTION_TIME_,6588
1480884990,5147a6f6b82e2e021e4ce3368d729868,Form,62,0,ppf15,NULL,amy_item=TrueTrueFalseFiller_role=truePerfect,yes
1480884990,5147a6f6b82e2e021e4ce3368d729868,Form,62,0,ppf15,NULL,bob_item=TrueTrueFalseFiller_role=trueSE,yes
1480884990,5147a6f6b82e2e021e4ce3368d729868,Form,62,0,ppf15,NULL,chris_item=TrueTrueFalseFiller_role=false,no
1480884990,5147a6f6b82e2e021e4ce3368d729868,Form,62,0,ppf15,NULL,_REACTION_TIME_,6804
1480884990,5147a6f6b82e2e021e4ce3368d729868,Form,9,0,od2,NULL,amy_item=OD_role=target,no
1480884990,5147a6f6b82e2e021e4ce3368d729868,Form,9,0,od2,NULL,bob_item=OD_role=falsecontrol,no
1480884990,5147a6f6b82e2e021e4ce3368d729868,Form,9,0,od2,NULL,chris_item=OD_role=truecontrolSE,yes
1480884990,5147a6f6b82e2e021e4ce3368d729868,Form,9,0,od2,NULL,_REACTION_TIME_,10897
1480884990,5147a6f6b82e2e021e4ce3368d729868,Form,69,0,sym2,NULL,amy_item=whichSymbolFiller_role=truecontrolSE,yes
1480884990,5147a6f6b82e2e021e4ce3368d729868,Form,69,0,sym2,NULL,bob_item=whichSymbolFiller_role=falsecontrol,no
1480884990,5147a6f6b82e2e021e4ce3368d729868,Form,69,0,sym2,NULL,chris_item=whichSymbolFiller_role=UDtargetTrue,yes
1480884990,5147a6f6b82e2e021e4ce3368d729868,Form,69,0,sym2,NULL,_REACTION_TIME_,11857
1480884990,5147a6f6b82e2e021e4ce3368d729868,Form,34,0,ud7,NULL,amy_item=UD_role=falsecontrol,no
1480884990,5147a6f6b82e2e021e4ce3368d729868,Form,34,0,ud7,NULL,bob_item=UD_role=truecontrolSE,yes
1480884990,5147a6f6b82e2e021e4ce3368d729868,Form,34,0,ud7,NULL,chris_item=UD_role=target,no
1480884990,5147a6f6b82e2e021e4ce3368d729868,Form,34,0,ud7,NULL,_REACTION_TIME_,28969
1480884990,5147a6f6b82e2e021e4ce3368d729868,Form,65,0,ppf18,NULL,amy_item=TrueTrueFalseFiller_role=truePerfect,yes
1480884990,5147a6f6b82e2e021e4ce3368d729868,Form,65,0,ppf18,NULL,bob_item=TrueTrueFalseFiller_role=false,no
1480884990,5147a6f6b82e2e021e4ce3368d729868,Form,65,0,ppf18,NULL,chris_item=TrueTrueFalseFiller_role=trueSE,yes
1480884990,5147a6f6b82e2e021e4ce3368d729868,Form,65,0,ppf18,NULL,_REACTION_TIME_,5552
1480884990,5147a6f6b82e2e021e4ce3368d729868,Form,40,0,ua3,NULL,amy_item=UA_role=falsecontrol,no
1480884990,5147a6f6b82e2e021e4ce3368d729868,Form,40,0,ua3,NULL,bob_item=UA_role=truecontrolSE,yes
1480884990,5147a6f6b82e2e021e4ce3368d729868,Form,40,0,ua3,NULL,chris_item=UA_role=target,no
1480884990,5147a6f6b82e2e021e4ce3368d729868,Form,40,0,ua3,NULL,_REACTION_TIME_,11468
#
# Results on Sunday December 04 2016 21:15:48 UTC.
# USER AGENT: Mozilla/5.0 (X11; Linux x86_64) AppleWebKit/537.36 (KHTML, like Gecko) Chrome/50.0.2661.102 Safari/537.36
# Design number was non-random = 8
#
# Columns below this comment are as follows:
# 1. Time results were received.
# 2. MD5 hash of participant's IP address.
# 3. Controller name.
# 4. Item number.
# 5. Element number.
# 6. Type.
# 7. Group.
# 8. Field name.
# 9. Field value.
1480886148,5147a6f6b82e2e021e4ce3368d729868,Form,1,0,instructions,NULL,,no
1480886148,5147a6f6b82e2e021e4ce3368d729868,Form,1,0,instructions,NULL,,no
1480886148,5147a6f6b82e2e021e4ce3368d729868,Form,1,0,instructions,NULL,,no
1480886148,5147a6f6b82e2e021e4ce3368d729868,Form,1,0,instructions,NULL,,no
1480886148,5147a6f6b82e2e021e4ce3368d729868,Form,1,0,instructions,NULL,,no
1480886148,5147a6f6b82e2e021e4ce3368d729868,Form,1,0,instructions,NULL,,no
1480886148,5147a6f6b82e2e021e4ce3368d729868,Form,1,0,instructions,NULL,,no
1480886148,5147a6f6b82e2e021e4ce3368d729868,Form,1,0,instructions,NULL,,no
1480886148,5147a6f6b82e2e021e4ce3368d729868,Form,1,0,instructions,NULL,,no
1480886148,5147a6f6b82e2e021e4ce3368d729868,Form,1,0,instructions,NULL,,no
1480886148,5147a6f6b82e2e021e4ce3368d729868,Form,1,0,instructions,NULL,,no
1480886148,5147a6f6b82e2e021e4ce3368d729868,Form,1,0,instructions,NULL,,no
1480886148,5147a6f6b82e2e021e4ce3368d729868,Form,1,0,instructions,NULL,_REACTION_TIME_,3533
1480886148,5147a6f6b82e2e021e4ce3368d729868,Form,2,0,training1,NULL,,no
1480886148,5147a6f6b82e2e021e4ce3368d729868,Form,2,0,training1,NULL,,no
1480886148,5147a6f6b82e2e021e4ce3368d729868,Form,2,0,training1,NULL,,no
1480886148,5147a6f6b82e2e021e4ce3368d729868,Form,2,0,training1,NULL,_REACTION_TIME_,2161
1480886148,5147a6f6b82e2e021e4ce3368d729868,Form,3,0,training2,NULL,,no
1480886148,5147a6f6b82e2e021e4ce3368d729868,Form,3,0,training2,NULL,,no
1480886148,5147a6f6b82e2e021e4ce3368d729868,Form,3,0,training2,NULL,,no
1480886148,5147a6f6b82e2e021e4ce3368d729868,Form,3,0,training2,NULL,_REACTION_TIME_,143
1480886148,5147a6f6b82e2e021e4ce3368d729868,Form,4,0,training3,NULL,,no
1480886148,5147a6f6b82e2e021e4ce3368d729868,Form,4,0,training3,NULL,,no
1480886148,5147a6f6b82e2e021e4ce3368d729868,Form,4,0,training3,NULL,,no
1480886148,5147a6f6b82e2e021e4ce3368d729868,Form,4,0,training3,NULL,_REACTION_TIME_,170
1480886148,5147a6f6b82e2e021e4ce3368d729868,Form,5,0,training4,NULL,,no
1480886148,5147a6f6b82e2e021e4ce3368d729868,Form,5,0,training4,NULL,,no
1480886148,5147a6f6b82e2e021e4ce3368d729868,Form,5,0,training4,NULL,,no
1480886148,5147a6f6b82e2e021e4ce3368d729868,Form,5,0,training4,NULL,_REACTION_TIME_,603
1480886148,5147a6f6b82e2e021e4ce3368d729868,Form,6,0,training5,NULL,,no
1480886148,5147a6f6b82e2e021e4ce3368d729868,Form,6,0,training5,NULL,,no
1480886148,5147a6f6b82e2e021e4ce3368d729868,Form,6,0,training5,NULL,,no
1480886148,5147a6f6b82e2e021e4ce3368d729868,Form,6,0,training5,NULL,_REACTION_TIME_,1523
1480886148,5147a6f6b82e2e021e4ce3368d729868,Form,7,0,od0,NULL,amy_item=OD_role=falsecontrol,no
1480886148,5147a6f6b82e2e021e4ce3368d729868,Form,7,0,od0,NULL,bob_item=OD_role=truecontrolSE,yes
1480886148,5147a6f6b82e2e021e4ce3368d729868,Form,7,0,od0,NULL,chris_item=OD_role=target,no
1480886148,5147a6f6b82e2e021e4ce3368d729868,Form,7,0,od0,NULL,_REACTION_TIME_,9283
1480886148,5147a6f6b82e2e021e4ce3368d729868,Form,42,0,ua5,NULL,amy_item=UA_role=falsecontrol,no
1480886148,5147a6f6b82e2e021e4ce3368d729868,Form,42,0,ua5,NULL,bob_item=UA_role=truecontrolSE,yes
1480886148,5147a6f6b82e2e021e4ce3368d729868,Form,42,0,ua5,NULL,chris_item=UA_role=target,no
1480886148,5147a6f6b82e2e021e4ce3368d729868,Form,42,0,ua5,NULL,_REACTION_TIME_,6807
1480886148,5147a6f6b82e2e021e4ce3368d729868,Form,19,0,oa2,NULL,amy_item=OA_role=target,no
1480886148,5147a6f6b82e2e021e4ce3368d729868,Form,19,0,oa2,NULL,bob_item=OA_role=falsecontrol,no
1480886148,5147a6f6b82e2e021e4ce3368d729868,Form,19,0,oa2,NULL,chris_item=OA_role=truecontrolSE,yes
1480886148,5147a6f6b82e2e021e4ce3368d729868,Form,19,0,oa2,NULL,_REACTION_TIME_,5903
1480886148,5147a6f6b82e2e021e4ce3368d729868,Form,71,0,sym4,NULL,amy_item=whichSymbolFiller_role=truecontrolSE,no
1480886148,5147a6f6b82e2e021e4ce3368d729868,Form,71,0,sym4,NULL,bob_item=whichSymbolFiller_role=UDtargetTrue,yes
1480886148,5147a6f6b82e2e021e4ce3368d729868,Form,71,0,sym4,NULL,chris_item=whichSymbolFiller_role=falsecontrol,no
1480886148,5147a6f6b82e2e021e4ce3368d729868,Form,71,0,sym4,NULL,_REACTION_TIME_,6716
1480886148,5147a6f6b82e2e021e4ce3368d729868,Form,36,0,ud9,NULL,amy_item=UD_role=truecontrolSE,yes
1480886148,5147a6f6b82e2e021e4ce3368d729868,Form,36,0,ud9,NULL,bob_item=UD_role=falsecontrol,no
1480886148,5147a6f6b82e2e021e4ce3368d729868,Form,36,0,ud9,NULL,chris_item=UD_role=target,no
1480886148,5147a6f6b82e2e021e4ce3368d729868,Form,36,0,ud9,NULL,_REACTION_TIME_,11494
1480886148,5147a6f6b82e2e021e4ce3368d729868,Form,60,0,ppf13,NULL,amy_item=TrueTrueFalseFiller_role=truePerfect,yes
1480886148,5147a6f6b82e2e021e4ce3368d729868,Form,60,0,ppf13,NULL,bob_item=TrueTrueFalseFiller_role=false,no
1480886148,5147a6f6b82e2e021e4ce3368d729868,Form,60,0,ppf13,NULL,chris_item=TrueTrueFalseFiller_role=trueSE,yes
1480886148,5147a6f6b82e2e021e4ce3368d729868,Form,60,0,ppf13,NULL,_REACTION_TIME_,12702
1480886148,5147a6f6b82e2e021e4ce3368d729868,Form,61,0,ppf14,NULL,amy_item=TrueTrueFalseFiller_role=false,no
1480886148,5147a6f6b82e2e021e4ce3368d729868,Form,61,0,ppf14,NULL,bob_item=TrueTrueFalseFiller_role=truePerfect,yes
1480886148,5147a6f6b82e2e021e4ce3368d729868,Form,61,0,ppf14,NULL,chris_item=TrueTrueFalseFiller_role=trueSE,yes
1480886148,5147a6f6b82e2e021e4ce3368d729868,Form,61,0,ppf14,NULL,_REACTION_TIME_,6233
1480886148,5147a6f6b82e2e021e4ce3368d729868,Form,85,0,lose3,NULL,amy_item=winFiller_role=UDtarget,no
1480886148,5147a6f6b82e2e021e4ce3368d729868,Form,85,0,lose3,NULL,bob_item=winFiller_role=falsecontrolSE,no
1480886148,5147a6f6b82e2e021e4ce3368d729868,Form,85,0,lose3,NULL,chris_item=winFiller_role=truecontrol,yes
1480886148,5147a6f6b82e2e021e4ce3368d729868,Form,85,0,lose3,NULL,_REACTION_TIME_,14392
1480886148,5147a6f6b82e2e021e4ce3368d729868,Form,20,0,oa3,NULL,amy_item=OA_role=falsecontrol,no
1480886148,5147a6f6b82e2e021e4ce3368d729868,Form,20,0,oa3,NULL,bob_item=OA_role=truecontrolSE,yes
1480886148,5147a6f6b82e2e021e4ce3368d729868,Form,20,0,oa3,NULL,chris_item=OA_role=target,no
1480886148,5147a6f6b82e2e021e4ce3368d729868,Form,20,0,oa3,NULL,_REACTION_TIME_,8613
1480886148,5147a6f6b82e2e021e4ce3368d729868,Form,34,0,ud7,NULL,amy_item=UD_role=falsecontrol,no
1480886148,5147a6f6b82e2e021e4ce3368d729868,Form,34,0,ud7,NULL,bob_item=UD_role=truecontrolSE,yes
1480886148,5147a6f6b82e2e021e4ce3368d729868,Form,34,0,ud7,NULL,chris_item=UD_role=target,no
1480886148,5147a6f6b82e2e021e4ce3368d729868,Form,34,0,ud7,NULL,_REACTION_TIME_,6456
1480886148,5147a6f6b82e2e021e4ce3368d729868,Form,58,0,ppf11,NULL,amy_item=TrueTrueFalseFiller_role=trueSE,yes
1480886148,5147a6f6b82e2e021e4ce3368d729868,Form,58,0,ppf11,NULL,bob_item=TrueTrueFalseFiller_role=false,no
1480886148,5147a6f6b82e2e021e4ce3368d729868,Form,58,0,ppf11,NULL,chris_item=TrueTrueFalseFiller_role=truePerfect,yes
1480886148,5147a6f6b82e2e021e4ce3368d729868,Form,58,0,ppf11,NULL,_REACTION_TIME_,4752
1480886148,5147a6f6b82e2e021e4ce3368d729868,Form,18,0,oa1,NULL,amy_item=OA_role=truecontrolSE,yes
1480886148,5147a6f6b82e2e021e4ce3368d729868,Form,18,0,oa1,NULL,bob_item=OA_role=target,no
1480886148,5147a6f6b82e2e021e4ce3368d729868,Form,18,0,oa1,NULL,chris_item=OA_role=falsecontrol,no
1480886148,5147a6f6b82e2e021e4ce3368d729868,Form,18,0,oa1,NULL,_REACTION_TIME_,5601
1480886148,5147a6f6b82e2e021e4ce3368d729868,Form,26,0,oa9,NULL,amy_item=OA_role=truecontrolSE,yes
1480886148,5147a6f6b82e2e021e4ce3368d729868,Form,26,0,oa9,NULL,bob_item=OA_role=falsecontrol,no
1480886148,5147a6f6b82e2e021e4ce3368d729868,Form,26,0,oa9,NULL,chris_item=OA_role=target,no
1480886148,5147a6f6b82e2e021e4ce3368d729868,Form,26,0,oa9,NULL,_REACTION_TIME_,6068
1480886148,5147a6f6b82e2e021e4ce3368d729868,Form,22,0,oa5,NULL,amy_item=OA_role=truecontrolSE,yes
1480886148,5147a6f6b82e2e021e4ce3368d729868,Form,22,0,oa5,NULL,bob_item=OA_role=target,no
1480886148,5147a6f6b82e2e021e4ce3368d729868,Form,22,0,oa5,NULL,chris_item=OA_role=falsecontrol,no
1480886148,5147a6f6b82e2e021e4ce3368d729868,Form,22,0,oa5,NULL,_REACTION_TIME_,4286
1480886148,5147a6f6b82e2e021e4ce3368d729868,Form,74,0,sym7,NULL,amy_item=whichSymbolFiller_role=falsecontrol,no
1480886148,5147a6f6b82e2e021e4ce3368d729868,Form,74,0,sym7,NULL,bob_item=whichSymbolFiller_role=truecontrolSE,yes
1480886148,5147a6f6b82e2e021e4ce3368d729868,Form,74,0,sym7,NULL,chris_item=whichSymbolFiller_role=UDtargetTrue,yes
1480886148,5147a6f6b82e2e021e4ce3368d729868,Form,74,0,sym7,NULL,_REACTION_TIME_,7977
1480886148,5147a6f6b82e2e021e4ce3368d729868,Form,23,0,oa6,NULL,amy_item=OA_role=falsecontrol,no
1480886148,5147a6f6b82e2e021e4ce3368d729868,Form,23,0,oa6,NULL,bob_item=OA_role=truecontrolSE,yes
1480886148,5147a6f6b82e2e021e4ce3368d729868,Form,23,0,oa6,NULL,chris_item=OA_role=target,no
1480886148,5147a6f6b82e2e021e4ce3368d729868,Form,23,0,oa6,NULL,_REACTION_TIME_,5657
1480886148,5147a6f6b82e2e021e4ce3368d729868,Form,67,0,sym0,NULL,amy_item=whichSymbolFiller_role=UDtargetTrue,yes
1480886148,5147a6f6b82e2e021e4ce3368d729868,Form,67,0,sym0,NULL,bob_item=whichSymbolFiller_role=falsecontrol,no
1480886148,5147a6f6b82e2e021e4ce3368d729868,Form,67,0,sym0,NULL,chris_item=whichSymbolFiller_role=truecontrolSE,no
1480886148,5147a6f6b82e2e021e4ce3368d729868,Form,67,0,sym0,NULL,_REACTION_TIME_,6531
1480886148,5147a6f6b82e2e021e4ce3368d729868,Form,40,0,ua3,NULL,amy_item=UA_role=falsecontrol,no
1480886148,5147a6f6b82e2e021e4ce3368d729868,Form,40,0,ua3,NULL,bob_item=UA_role=truecontrolSE,yes
1480886148,5147a6f6b82e2e021e4ce3368d729868,Form,40,0,ua3,NULL,chris_item=UA_role=target,no
1480886148,5147a6f6b82e2e021e4ce3368d729868,Form,40,0,ua3,NULL,_REACTION_TIME_,17702
1480886148,5147a6f6b82e2e021e4ce3368d729868,Form,24,0,oa7,NULL,amy_item=OA_role=falsecontrol,no
1480886148,5147a6f6b82e2e021e4ce3368d729868,Form,24,0,oa7,NULL,bob_item=OA_role=truecontrolSE,yes
1480886148,5147a6f6b82e2e021e4ce3368d729868,Form,24,0,oa7,NULL,chris_item=OA_role=target,no
1480886148,5147a6f6b82e2e021e4ce3368d729868,Form,24,0,oa7,NULL,_REACTION_TIME_,4972
1480886148,5147a6f6b82e2e021e4ce3368d729868,Form,53,0,ppf6,NULL,amy_item=TrueTrueFalseFiller_role=false,no
1480886148,5147a6f6b82e2e021e4ce3368d729868,Form,53,0,ppf6,NULL,bob_item=TrueTrueFalseFiller_role=truePerfect,yes
1480886148,5147a6f6b82e2e021e4ce3368d729868,Form,53,0,ppf6,NULL,chris_item=TrueTrueFalseFiller_role=trueSE,yes
1480886148,5147a6f6b82e2e021e4ce3368d729868,Form,53,0,ppf6,NULL,_REACTION_TIME_,14752
1480886148,5147a6f6b82e2e021e4ce3368d729868,Form,21,0,oa4,NULL,amy_item=OA_role=truecontrolSE,yes
1480886148,5147a6f6b82e2e021e4ce3368d729868,Form,21,0,oa4,NULL,bob_item=OA_role=falsecontrol,no
1480886148,5147a6f6b82e2e021e4ce3368d729868,Form,21,0,oa4,NULL,chris_item=OA_role=target,no
1480886148,5147a6f6b82e2e021e4ce3368d729868,Form,21,0,oa4,NULL,_REACTION_TIME_,5793
1480886148,5147a6f6b82e2e021e4ce3368d729868,Form,59,0,ppf12,NULL,amy_item=TrueTrueFalseFiller_role=false,no
1480886148,5147a6f6b82e2e021e4ce3368d729868,Form,59,0,ppf12,NULL,bob_item=TrueTrueFalseFiller_role=truePerfect,yes
1480886148,5147a6f6b82e2e021e4ce3368d729868,Form,59,0,ppf12,NULL,chris_item=TrueTrueFalseFiller_role=trueSE,yes
1480886148,5147a6f6b82e2e021e4ce3368d729868,Form,59,0,ppf12,NULL,_REACTION_TIME_,5366
1480886148,5147a6f6b82e2e021e4ce3368d729868,Form,84,0,lose2,NULL,amy_item=winFiller_role=UDtarget,no
1480886148,5147a6f6b82e2e021e4ce3368d729868,Form,84,0,lose2,NULL,bob_item=winFiller_role=falsecontrolSE,no
1480886148,5147a6f6b82e2e021e4ce3368d729868,Form,84,0,lose2,NULL,chris_item=winFiller_role=truecontrol,yes
1480886148,5147a6f6b82e2e021e4ce3368d729868,Form,84,0,lose2,NULL,_REACTION_TIME_,12265
1480886148,5147a6f6b82e2e021e4ce3368d729868,Form,15,0,od8,NULL,amy_item=OD_role=target,no
1480886148,5147a6f6b82e2e021e4ce3368d729868,Form,15,0,od8,NULL,bob_item=OD_role=falsecontrol,no
1480886148,5147a6f6b82e2e021e4ce3368d729868,Form,15,0,od8,NULL,chris_item=OD_role=truecontrolSE,yes
1480886148,5147a6f6b82e2e021e4ce3368d729868,Form,15,0,od8,NULL,_REACTION_TIME_,33661
1480886148,5147a6f6b82e2e021e4ce3368d729868,Form,13,0,od6,NULL,amy_item=OD_role=truecontrolSE,yes
1480886148,5147a6f6b82e2e021e4ce3368d729868,Form,13,0,od6,NULL,bob_item=OD_role=falsecontrol,no
1480886148,5147a6f6b82e2e021e4ce3368d729868,Form,13,0,od6,NULL,chris_item=OD_role=target,no
1480886148,5147a6f6b82e2e021e4ce3368d729868,Form,13,0,od6,NULL,_REACTION_TIME_,5898
1480886148,5147a6f6b82e2e021e4ce3368d729868,Form,81,0,win4,NULL,amy_item=winFiller_role=UDtarget,no
1480886148,5147a6f6b82e2e021e4ce3368d729868,Form,81,0,win4,NULL,bob_item=winFiller_role=falsecontrol,no
1480886148,5147a6f6b82e2e021e4ce3368d729868,Form,81,0,win4,NULL,chris_item=winFiller_role=truecontrolSE,yes
1480886148,5147a6f6b82e2e021e4ce3368d729868,Form,81,0,win4,NULL,_REACTION_TIME_,6960
1480886148,5147a6f6b82e2e021e4ce3368d729868,Form,51,0,ppf4,NULL,amy_item=TrueTrueFalseFiller_role=false,no
1480886148,5147a6f6b82e2e021e4ce3368d729868,Form,51,0,ppf4,NULL,bob_item=TrueTrueFalseFiller_role=trueSE,yes
1480886148,5147a6f6b82e2e021e4ce3368d729868,Form,51,0,ppf4,NULL,chris_item=TrueTrueFalseFiller_role=truePerfect,yes
1480886148,5147a6f6b82e2e021e4ce3368d729868,Form,51,0,ppf4,NULL,_REACTION_TIME_,5180
1480886148,5147a6f6b82e2e021e4ce3368d729868,Form,73,0,sym6,NULL,amy_item=whichSymbolFiller_role=UDtargetTrue,yes
1480886148,5147a6f6b82e2e021e4ce3368d729868,Form,73,0,sym6,NULL,bob_item=whichSymbolFiller_role=truecontrolSE,yes
1480886148,5147a6f6b82e2e021e4ce3368d729868,Form,73,0,sym6,NULL,chris_item=whichSymbolFiller_role=falsecontrol,no
1480886148,5147a6f6b82e2e021e4ce3368d729868,Form,73,0,sym6,NULL,_REACTION_TIME_,6636
1480886148,5147a6f6b82e2e021e4ce3368d729868,Form,54,0,ppf7,NULL,amy_item=TrueTrueFalseFiller_role=truePerfect,yes
1480886148,5147a6f6b82e2e021e4ce3368d729868,Form,54,0,ppf7,NULL,bob_item=TrueTrueFalseFiller_role=false,no
1480886148,5147a6f6b82e2e021e4ce3368d729868,Form,54,0,ppf7,NULL,chris_item=TrueTrueFalseFiller_role=trueSE,yes
1480886148,5147a6f6b82e2e021e4ce3368d729868,Form,54,0,ppf7,NULL,_REACTION_TIME_,6153
1480886148,5147a6f6b82e2e021e4ce3368d729868,Form,31,0,ud4,NULL,amy_item=UD_role=target,no
1480886148,5147a6f6b82e2e021e4ce3368d729868,Form,31,0,ud4,NULL,bob_item=UD_role=truecontrolSE,yes
1480886148,5147a6f6b82e2e021e4ce3368d729868,Form,31,0,ud4,NULL,chris_item=UD_role=falsecontrol,no
1480886148,5147a6f6b82e2e021e4ce3368d729868,Form,31,0,ud4,NULL,_REACTION_TIME_,6758
1480886148,5147a6f6b82e2e021e4ce3368d729868,Form,10,0,od3,NULL,amy_item=OD_role=target,no
1480886148,5147a6f6b82e2e021e4ce3368d729868,Form,10,0,od3,NULL,bob_item=OD_role=falsecontrol,no
1480886148,5147a6f6b82e2e021e4ce3368d729868,Form,10,0,od3,NULL,chris_item=OD_role=truecontrolSE,yes
1480886148,5147a6f6b82e2e021e4ce3368d729868,Form,10,0,od3,NULL,_REACTION_TIME_,8281
1480886148,5147a6f6b82e2e021e4ce3368d729868,Form,77,0,win0,NULL,amy_item=winFiller_role=falsecontrol,no
1480886148,5147a6f6b82e2e021e4ce3368d729868,Form,77,0,win0,NULL,bob_item=winFiller_role=truecontrolSE,yes
1480886148,5147a6f6b82e2e021e4ce3368d729868,Form,77,0,win0,NULL,chris_item=winFiller_role=UDtarget,no
1480886148,5147a6f6b82e2e021e4ce3368d729868,Form,77,0,win0,NULL,_REACTION_TIME_,7335
1480886148,5147a6f6b82e2e021e4ce3368d729868,Form,70,0,sym3,NULL,amy_item=whichSymbolFiller_role=truecontrolSE,yes
1480886148,5147a6f6b82e2e021e4ce3368d729868,Form,70,0,sym3,NULL,bob_item=whichSymbolFiller_role=UDtargetTrue,yes
1480886148,5147a6f6b82e2e021e4ce3368d729868,Form,70,0,sym3,NULL,chris_item=whichSymbolFiller_role=falsecontrol,no
1480886148,5147a6f6b82e2e021e4ce3368d729868,Form,70,0,sym3,NULL,_REACTION_TIME_,7228
1480886148,5147a6f6b82e2e021e4ce3368d729868,Form,37,0,ua0,NULL,amy_item=UA_role=falsecontrol,no
1480886148,5147a6f6b82e2e021e4ce3368d729868,Form,37,0,ua0,NULL,bob_item=UA_role=target,no
1480886148,5147a6f6b82e2e021e4ce3368d729868,Form,37,0,ua0,NULL,chris_item=UA_role=truecontrolSE,yes
1480886148,5147a6f6b82e2e021e4ce3368d729868,Form,37,0,ua0,NULL,_REACTION_TIME_,8557
1480886148,5147a6f6b82e2e021e4ce3368d729868,Form,65,0,ppf18,NULL,amy_item=TrueTrueFalseFiller_role=truePerfect,yes
1480886148,5147a6f6b82e2e021e4ce3368d729868,Form,65,0,ppf18,NULL,bob_item=TrueTrueFalseFiller_role=false,no
1480886148,5147a6f6b82e2e021e4ce3368d729868,Form,65,0,ppf18,NULL,chris_item=TrueTrueFalseFiller_role=trueSE,yes
1480886148,5147a6f6b82e2e021e4ce3368d729868,Form,65,0,ppf18,NULL,_REACTION_TIME_,5994
1480886148,5147a6f6b82e2e021e4ce3368d729868,Form,49,0,ppf2,NULL,amy_item=TrueTrueFalseFiller_role=trueSE,yes
1480886148,5147a6f6b82e2e021e4ce3368d729868,Form,49,0,ppf2,NULL,bob_item=TrueTrueFalseFiller_role=truePerfect,yes
1480886148,5147a6f6b82e2e021e4ce3368d729868,Form,49,0,ppf2,NULL,chris_item=TrueTrueFalseFiller_role=false,no
1480886148,5147a6f6b82e2e021e4ce3368d729868,Form,49,0,ppf2,NULL,_REACTION_TIME_,5354
1480886148,5147a6f6b82e2e021e4ce3368d729868,Form,55,0,ppf8,NULL,amy_item=TrueTrueFalseFiller_role=truePerfect,yes
1480886148,5147a6f6b82e2e021e4ce3368d729868,Form,55,0,ppf8,NULL,bob_item=TrueTrueFalseFiller_role=false,no
1480886148,5147a6f6b82e2e021e4ce3368d729868,Form,55,0,ppf8,NULL,chris_item=TrueTrueFalseFiller_role=trueSE,yes
1480886148,5147a6f6b82e2e021e4ce3368d729868,Form,55,0,ppf8,NULL,_REACTION_TIME_,5641
1480886148,5147a6f6b82e2e021e4ce3368d729868,Form,66,0,ppf19,NULL,amy_item=TrueTrueFalseFiller_role=trueSE,yes
1480886148,5147a6f6b82e2e021e4ce3368d729868,Form,66,0,ppf19,NULL,bob_item=TrueTrueFalseFiller_role=false,no
1480886148,5147a6f6b82e2e021e4ce3368d729868,Form,66,0,ppf19,NULL,chris_item=TrueTrueFalseFiller_role=truePerfect,yes
1480886148,5147a6f6b82e2e021e4ce3368d729868,Form,66,0,ppf19,NULL,_REACTION_TIME_,7058
1480886148,5147a6f6b82e2e021e4ce3368d729868,Form,68,0,sym1,NULL,amy_item=whichSymbolFiller_role=truecontrolSE,yes
1480886148,5147a6f6b82e2e021e4ce3368d729868,Form,68,0,sym1,NULL,bob_item=whichSymbolFiller_role=falsecontrol,no
1480886148,5147a6f6b82e2e021e4ce3368d729868,Form,68,0,sym1,NULL,chris_item=whichSymbolFiller_role=UDtargetTrue,yes
1480886148,5147a6f6b82e2e021e4ce3368d729868,Form,68,0,sym1,NULL,_REACTION_TIME_,9817
1480886148,5147a6f6b82e2e021e4ce3368d729868,Form,29,0,ud2,NULL,amy_item=UD_role=truecontrolSE,yes
1480886148,5147a6f6b82e2e021e4ce3368d729868,Form,29,0,ud2,NULL,bob_item=UD_role=target,no
1480886148,5147a6f6b82e2e021e4ce3368d729868,Form,29,0,ud2,NULL,chris_item=UD_role=falsecontrol,no
1480886148,5147a6f6b82e2e021e4ce3368d729868,Form,29,0,ud2,NULL,_REACTION_TIME_,7305
1480886148,5147a6f6b82e2e021e4ce3368d729868,Form,17,0,oa0,NULL,amy_item=OA_role=target,no
1480886148,5147a6f6b82e2e021e4ce3368d729868,Form,17,0,oa0,NULL,bob_item=OA_role=falsecontrol,no
1480886148,5147a6f6b82e2e021e4ce3368d729868,Form,17,0,oa0,NULL,chris_item=OA_role=truecontrolSE,yes
1480886148,5147a6f6b82e2e021e4ce3368d729868,Form,17,0,oa0,NULL,_REACTION_TIME_,4484
1480886148,5147a6f6b82e2e021e4ce3368d729868,Form,56,0,ppf9,NULL,amy_item=TrueTrueFalseFiller_role=truePerfect,yes
1480886148,5147a6f6b82e2e021e4ce3368d729868,Form,56,0,ppf9,NULL,bob_item=TrueTrueFalseFiller_role=trueSE,yes
1480886148,5147a6f6b82e2e021e4ce3368d729868,Form,56,0,ppf9,NULL,chris_item=TrueTrueFalseFiller_role=false,no
1480886148,5147a6f6b82e2e021e4ce3368d729868,Form,56,0,ppf9,NULL,_REACTION_TIME_,8243
1480886148,5147a6f6b82e2e021e4ce3368d729868,Form,11,0,od4,NULL,amy_item=OD_role=falsecontrol,no
1480886148,5147a6f6b82e2e021e4ce3368d729868,Form,11,0,od4,NULL,bob_item=OD_role=truecontrolSE,yes
1480886148,5147a6f6b82e2e021e4ce3368d729868,Form,11,0,od4,NULL,chris_item=OD_role=target,no
1480886148,5147a6f6b82e2e021e4ce3368d729868,Form,11,0,od4,NULL,_REACTION_TIME_,4300
1480886148,5147a6f6b82e2e021e4ce3368d729868,Form,32,0,ud5,NULL,amy_item=UD_role=falsecontrol,no
1480886148,5147a6f6b82e2e021e4ce3368d729868,Form,32,0,ud5,NULL,bob_item=UD_role=truecontrolSE,yes
1480886148,5147a6f6b82e2e021e4ce3368d729868,Form,32,0,ud5,NULL,chris_item=UD_role=target,no
1480886148,5147a6f6b82e2e021e4ce3368d729868,Form,32,0,ud5,NULL,_REACTION_TIME_,4503
1480886148,5147a6f6b82e2e021e4ce3368d729868,Form,14,0,od7,NULL,amy_item=OD_role=truecontrolSE,yes
1480886148,5147a6f6b82e2e021e4ce3368d729868,Form,14,0,od7,NULL,bob_item=OD_role=target,no
1480886148,5147a6f6b82e2e021e4ce3368d729868,Form,14,0,od7,NULL,chris_item=OD_role=falsecontrol,no
1480886148,5147a6f6b82e2e021e4ce3368d729868,Form,14,0,od7,NULL,_REACTION_TIME_,4796
1480886148,5147a6f6b82e2e021e4ce3368d729868,Form,80,0,win3,NULL,amy_item=winFiller_role=UDtarget,no
1480886148,5147a6f6b82e2e021e4ce3368d729868,Form,80,0,win3,NULL,bob_item=winFiller_role=falsecontrol,no
1480886148,5147a6f6b82e2e021e4ce3368d729868,Form,80,0,win3,NULL,chris_item=winFiller_role=truecontrolSE,yes
1480886148,5147a6f6b82e2e021e4ce3368d729868,Form,80,0,win3,NULL,_REACTION_TIME_,8382
1480886148,5147a6f6b82e2e021e4ce3368d729868,Form,43,0,ua6,NULL,amy_item=UA_role=target,no
1480886148,5147a6f6b82e2e021e4ce3368d729868,Form,43,0,ua6,NULL,bob_item=UA_role=truecontrolSE,yes
1480886148,5147a6f6b82e2e021e4ce3368d729868,Form,43,0,ua6,NULL,chris_item=UA_role=falsecontrol,no
1480886148,5147a6f6b82e2e021e4ce3368d729868,Form,43,0,ua6,NULL,_REACTION_TIME_,8226
1480886148,5147a6f6b82e2e021e4ce3368d729868,Form,83,0,lose1,NULL,amy_item=winFiller_role=UDtarget,no
1480886148,5147a6f6b82e2e021e4ce3368d729868,Form,83,0,lose1,NULL,bob_item=winFiller_role=truecontrol,yes
1480886148,5147a6f6b82e2e021e4ce3368d729868,Form,83,0,lose1,NULL,chris_item=winFiller_role=falsecontrolSE,no
1480886148,5147a6f6b82e2e021e4ce3368d729868,Form,83,0,lose1,NULL,_REACTION_TIME_,16342
1480886148,5147a6f6b82e2e021e4ce3368d729868,Form,79,0,win2,NULL,amy_item=winFiller_role=falsecontrol,no
1480886148,5147a6f6b82e2e021e4ce3368d729868,Form,79,0,win2,NULL,bob_item=winFiller_role=UDtarget,no
1480886148,5147a6f6b82e2e021e4ce3368d729868,Form,79,0,win2,NULL,chris_item=winFiller_role=truecontrolSE,yes
1480886148,5147a6f6b82e2e021e4ce3368d729868,Form,79,0,win2,NULL,_REACTION_TIME_,8271
1480886148,5147a6f6b82e2e021e4ce3368d729868,Form,57,0,ppf10,NULL,amy_item=TrueTrueFalseFiller_role=trueSE,yes
1480886148,5147a6f6b82e2e021e4ce3368d729868,Form,57,0,ppf10,NULL,bob_item=TrueTrueFalseFiller_role=truePerfect,yes
1480886148,5147a6f6b82e2e021e4ce3368d729868,Form,57,0,ppf10,NULL,chris_item=TrueTrueFalseFiller_role=false,no
1480886148,5147a6f6b82e2e021e4ce3368d729868,Form,57,0,ppf10,NULL,_REACTION_TIME_,7243
1480886148,5147a6f6b82e2e021e4ce3368d729868,Form,69,0,sym2,NULL,amy_item=whichSymbolFiller_role=truecontrolSE,yes
1480886148,5147a6f6b82e2e021e4ce3368d729868,Form,69,0,sym2,NULL,bob_item=whichSymbolFiller_role=falsecontrol,no
1480886148,5147a6f6b82e2e021e4ce3368d729868,Form,69,0,sym2,NULL,chris_item=whichSymbolFiller_role=UDtargetTrue,yes
1480886148,5147a6f6b82e2e021e4ce3368d729868,Form,69,0,sym2,NULL,_REACTION_TIME_,5945
1480886148,5147a6f6b82e2e021e4ce3368d729868,Form,46,0,ua9,NULL,amy_item=UA_role=truecontrolSE,yes
1480886148,5147a6f6b82e2e021e4ce3368d729868,Form,46,0,ua9,NULL,bob_item=UA_role=target,no
1480886148,5147a6f6b82e2e021e4ce3368d729868,Form,46,0,ua9,NULL,chris_item=UA_role=falsecontrol,no
1480886148,5147a6f6b82e2e021e4ce3368d729868,Form,46,0,ua9,NULL,_REACTION_TIME_,8051
1480886148,5147a6f6b82e2e021e4ce3368d729868,Form,27,0,ud0,NULL,amy_item=UD_role=truecontrolSE,yes
1480886148,5147a6f6b82e2e021e4ce3368d729868,Form,27,0,ud0,NULL,bob_item=UD_role=target,no
1480886148,5147a6f6b82e2e021e4ce3368d729868,Form,27,0,ud0,NULL,chris_item=UD_role=falsecontrol,no
1480886148,5147a6f6b82e2e021e4ce3368d729868,Form,27,0,ud0,NULL,_REACTION_TIME_,6990
1480886148,5147a6f6b82e2e021e4ce3368d729868,Form,52,0,ppf5,NULL,amy_item=TrueTrueFalseFiller_role=false,no
1480886148,5147a6f6b82e2e021e4ce3368d729868,Form,52,0,ppf5,NULL,bob_item=TrueTrueFalseFiller_role=truePerfect,yes
1480886148,5147a6f6b82e2e021e4ce3368d729868,Form,52,0,ppf5,NULL,chris_item=TrueTrueFalseFiller_role=trueSE,yes
1480886148,5147a6f6b82e2e021e4ce3368d729868,Form,52,0,ppf5,NULL,_REACTION_TIME_,5877
1480886148,5147a6f6b82e2e021e4ce3368d729868,Form,38,0,ua1,NULL,amy_item=UA_role=target,no
1480886148,5147a6f6b82e2e021e4ce3368d729868,Form,38,0,ua1,NULL,bob_item=UA_role=falsecontrol,no
1480886148,5147a6f6b82e2e021e4ce3368d729868,Form,38,0,ua1,NULL,chris_item=UA_role=truecontrolSE,yes
1480886148,5147a6f6b82e2e021e4ce3368d729868,Form,38,0,ua1,NULL,_REACTION_TIME_,10156
1480886148,5147a6f6b82e2e021e4ce3368d729868,Form,47,0,ppf0,NULL,amy_item=TrueTrueFalseFiller_role=false,no
1480886148,5147a6f6b82e2e021e4ce3368d729868,Form,47,0,ppf0,NULL,bob_item=TrueTrueFalseFiller_role=truePerfect,yes
1480886148,5147a6f6b82e2e021e4ce3368d729868,Form,47,0,ppf0,NULL,chris_item=TrueTrueFalseFiller_role=trueSE,yes
1480886148,5147a6f6b82e2e021e4ce3368d729868,Form,47,0,ppf0,NULL,_REACTION_TIME_,5093
1480886148,5147a6f6b82e2e021e4ce3368d729868,Form,8,0,od1,NULL,amy_item=OD_role=target,no
1480886148,5147a6f6b82e2e021e4ce3368d729868,Form,8,0,od1,NULL,bob_item=OD_role=truecontrolSE,yes
1480886148,5147a6f6b82e2e021e4ce3368d729868,Form,8,0,od1,NULL,chris_item=OD_role=falsecontrol,no
1480886148,5147a6f6b82e2e021e4ce3368d729868,Form,8,0,od1,NULL,_REACTION_TIME_,4469
1480886148,5147a6f6b82e2e021e4ce3368d729868,Form,25,0,oa8,NULL,amy_item=OA_role=target,no
1480886148,5147a6f6b82e2e021e4ce3368d729868,Form,25,0,oa8,NULL,bob_item=OA_role=falsecontrol,no
1480886148,5147a6f6b82e2e021e4ce3368d729868,Form,25,0,oa8,NULL,chris_item=OA_role=truecontrolSE,yes
1480886148,5147a6f6b82e2e021e4ce3368d729868,Form,25,0,oa8,NULL,_REACTION_TIME_,8361
1480886148,5147a6f6b82e2e021e4ce3368d729868,Form,64,0,ppf17,NULL,amy_item=TrueTrueFalseFiller_role=trueSE,yes
1480886148,5147a6f6b82e2e021e4ce3368d729868,Form,64,0,ppf17,NULL,bob_item=TrueTrueFalseFiller_role=false,no
1480886148,5147a6f6b82e2e021e4ce3368d729868,Form,64,0,ppf17,NULL,chris_item=TrueTrueFalseFiller_role=truePerfect,yes
1480886148,5147a6f6b82e2e021e4ce3368d729868,Form,64,0,ppf17,NULL,_REACTION_TIME_,5209
1480886148,5147a6f6b82e2e021e4ce3368d729868,Form,45,0,ua8,NULL,amy_item=UA_role=falsecontrol,no
1480886148,5147a6f6b82e2e021e4ce3368d729868,Form,45,0,ua8,NULL,bob_item=UA_role=target,no
1480886148,5147a6f6b82e2e021e4ce3368d729868,Form,45,0,ua8,NULL,chris_item=UA_role=truecontrolSE,yes
1480886148,5147a6f6b82e2e021e4ce3368d729868,Form,45,0,ua8,NULL,_REACTION_TIME_,4883
1480886148,5147a6f6b82e2e021e4ce3368d729868,Form,9,0,od2,NULL,amy_item=OD_role=target,no
1480886148,5147a6f6b82e2e021e4ce3368d729868,Form,9,0,od2,NULL,bob_item=OD_role=falsecontrol,no
1480886148,5147a6f6b82e2e021e4ce3368d729868,Form,9,0,od2,NULL,chris_item=OD_role=truecontrolSE,yes
1480886148,5147a6f6b82e2e021e4ce3368d729868,Form,9,0,od2,NULL,_REACTION_TIME_,3656
1480886148,5147a6f6b82e2e021e4ce3368d729868,Form,75,0,sym8,NULL,amy_item=whichSymbolFiller_role=truecontrolSE,no
1480886148,5147a6f6b82e2e021e4ce3368d729868,Form,75,0,sym8,NULL,bob_item=whichSymbolFiller_role=UDtargetTrue,no
1480886148,5147a6f6b82e2e021e4ce3368d729868,Form,75,0,sym8,NULL,chris_item=whichSymbolFiller_role=falsecontrol,no
1480886148,5147a6f6b82e2e021e4ce3368d729868,Form,75,0,sym8,NULL,_REACTION_TIME_,6926
1480886148,5147a6f6b82e2e021e4ce3368d729868,Form,76,0,sym9,NULL,amy_item=whichSymbolFiller_role=truecontrolSE,yes
1480886148,5147a6f6b82e2e021e4ce3368d729868,Form,76,0,sym9,NULL,bob_item=whichSymbolFiller_role=falsecontrol,no
1480886148,5147a6f6b82e2e021e4ce3368d729868,Form,76,0,sym9,NULL,chris_item=whichSymbolFiller_role=UDtargetTrue,yes
1480886148,5147a6f6b82e2e021e4ce3368d729868,Form,76,0,sym9,NULL,_REACTION_TIME_,7548
1480886148,5147a6f6b82e2e021e4ce3368d729868,Form,30,0,ud3,NULL,amy_item=UD_role=truecontrolSE,yes
1480886148,5147a6f6b82e2e021e4ce3368d729868,Form,30,0,ud3,NULL,bob_item=UD_role=target,yes
1480886148,5147a6f6b82e2e021e4ce3368d729868,Form,30,0,ud3,NULL,chris_item=UD_role=falsecontrol,no
1480886148,5147a6f6b82e2e021e4ce3368d729868,Form,30,0,ud3,NULL,_REACTION_TIME_,6991
1480886148,5147a6f6b82e2e021e4ce3368d729868,Form,41,0,ua4,NULL,amy_item=UA_role=falsecontrol,no
1480886148,5147a6f6b82e2e021e4ce3368d729868,Form,41,0,ua4,NULL,bob_item=UA_role=truecontrolSE,yes
1480886148,5147a6f6b82e2e021e4ce3368d729868,Form,41,0,ua4,NULL,chris_item=UA_role=target,no
1480886148,5147a6f6b82e2e021e4ce3368d729868,Form,41,0,ua4,NULL,_REACTION_TIME_,12022
1480886148,5147a6f6b82e2e021e4ce3368d729868,Form,35,0,ud8,NULL,amy_item=UD_role=truecontrolSE,yes
1480886148,5147a6f6b82e2e021e4ce3368d729868,Form,35,0,ud8,NULL,bob_item=UD_role=target,yes
1480886148,5147a6f6b82e2e021e4ce3368d729868,Form,35,0,ud8,NULL,chris_item=UD_role=falsecontrol,no
1480886148,5147a6f6b82e2e021e4ce3368d729868,Form,35,0,ud8,NULL,_REACTION_TIME_,8854
1480886148,5147a6f6b82e2e021e4ce3368d729868,Form,44,0,ua7,NULL,amy_item=UA_role=falsecontrol,no
1480886148,5147a6f6b82e2e021e4ce3368d729868,Form,44,0,ua7,NULL,bob_item=UA_role=truecontrolSE,yes
1480886148,5147a6f6b82e2e021e4ce3368d729868,Form,44,0,ua7,NULL,chris_item=UA_role=target,no
1480886148,5147a6f6b82e2e021e4ce3368d729868,Form,44,0,ua7,NULL,_REACTION_TIME_,7961
1480886148,5147a6f6b82e2e021e4ce3368d729868,Form,62,0,ppf15,NULL,amy_item=TrueTrueFalseFiller_role=truePerfect,yes
1480886148,5147a6f6b82e2e021e4ce3368d729868,Form,62,0,ppf15,NULL,bob_item=TrueTrueFalseFiller_role=trueSE,yes
1480886148,5147a6f6b82e2e021e4ce3368d729868,Form,62,0,ppf15,NULL,chris_item=TrueTrueFalseFiller_role=false,no
1480886148,5147a6f6b82e2e021e4ce3368d729868,Form,62,0,ppf15,NULL,_REACTION_TIME_,5041
1480886148,5147a6f6b82e2e021e4ce3368d729868,Form,48,0,ppf1,NULL,amy_item=TrueTrueFalseFiller_role=truePerfect,yes
1480886148,5147a6f6b82e2e021e4ce3368d729868,Form,48,0,ppf1,NULL,bob_item=TrueTrueFalseFiller_role=trueSE,yes
1480886148,5147a6f6b82e2e021e4ce3368d729868,Form,48,0,ppf1,NULL,chris_item=TrueTrueFalseFiller_role=false,no
1480886148,5147a6f6b82e2e021e4ce3368d729868,Form,48,0,ppf1,NULL,_REACTION_TIME_,4111
1480886148,5147a6f6b82e2e021e4ce3368d729868,Form,72,0,sym5,NULL,amy_item=whichSymbolFiller_role=falsecontrol,no
1480886148,5147a6f6b82e2e021e4ce3368d729868,Form,72,0,sym5,NULL,bob_item=whichSymbolFiller_role=UDtargetTrue,yes
1480886148,5147a6f6b82e2e021e4ce3368d729868,Form,72,0,sym5,NULL,chris_item=whichSymbolFiller_role=truecontrolSE,yes
1480886148,5147a6f6b82e2e021e4ce3368d729868,Form,72,0,sym5,NULL,_REACTION_TIME_,11015
1480886148,5147a6f6b82e2e021e4ce3368d729868,Form,39,0,ua2,NULL,amy_item=UA_role=falsecontrol,no
1480886148,5147a6f6b82e2e021e4ce3368d729868,Form,39,0,ua2,NULL,bob_item=UA_role=target,no
1480886148,5147a6f6b82e2e021e4ce3368d729868,Form,39,0,ua2,NULL,chris_item=UA_role=truecontrolSE,yes
1480886148,5147a6f6b82e2e021e4ce3368d729868,Form,39,0,ua2,NULL,_REACTION_TIME_,7279
1480886148,5147a6f6b82e2e021e4ce3368d729868,Form,63,0,ppf16,NULL,amy_item=TrueTrueFalseFiller_role=trueSE,yes
1480886148,5147a6f6b82e2e021e4ce3368d729868,Form,63,0,ppf16,NULL,bob_item=TrueTrueFalseFiller_role=false,no
1480886148,5147a6f6b82e2e021e4ce3368d729868,Form,63,0,ppf16,NULL,chris_item=TrueTrueFalseFiller_role=truePerfect,yes
1480886148,5147a6f6b82e2e021e4ce3368d729868,Form,63,0,ppf16,NULL,_REACTION_TIME_,6132
1480886148,5147a6f6b82e2e021e4ce3368d729868,Form,50,0,ppf3,NULL,amy_item=TrueTrueFalseFiller_role=trueSE,yes
1480886148,5147a6f6b82e2e021e4ce3368d729868,Form,50,0,ppf3,NULL,bob_item=TrueTrueFalseFiller_role=truePerfect,yes
1480886148,5147a6f6b82e2e021e4ce3368d729868,Form,50,0,ppf3,NULL,chris_item=TrueTrueFalseFiller_role=false,no
1480886148,5147a6f6b82e2e021e4ce3368d729868,Form,50,0,ppf3,NULL,_REACTION_TIME_,6206
1480886148,5147a6f6b82e2e021e4ce3368d729868,Form,28,0,ud1,NULL,amy_item=UD_role=falsecontrol,no
1480886148,5147a6f6b82e2e021e4ce3368d729868,Form,28,0,ud1,NULL,bob_item=UD_role=truecontrolSE,yes
1480886148,5147a6f6b82e2e021e4ce3368d729868,Form,28,0,ud1,NULL,chris_item=UD_role=target,no
1480886148,5147a6f6b82e2e021e4ce3368d729868,Form,28,0,ud1,NULL,_REACTION_TIME_,5670
1480886148,5147a6f6b82e2e021e4ce3368d729868,Form,82,0,lose0,NULL,amy_item=winFiller_role=UDtarget,no
1480886148,5147a6f6b82e2e021e4ce3368d729868,Form,82,0,lose0,NULL,bob_item=winFiller_role=falsecontrolSE,no
1480886148,5147a6f6b82e2e021e4ce3368d729868,Form,82,0,lose0,NULL,chris_item=winFiller_role=truecontrol,yes
1480886148,5147a6f6b82e2e021e4ce3368d729868,Form,82,0,lose0,NULL,_REACTION_TIME_,8747
1480886148,5147a6f6b82e2e021e4ce3368d729868,Form,86,0,lose4,NULL,amy_item=winFiller_role=truecontrol,yes
1480886148,5147a6f6b82e2e021e4ce3368d729868,Form,86,0,lose4,NULL,bob_item=winFiller_role=falsecontrolSE,no
1480886148,5147a6f6b82e2e021e4ce3368d729868,Form,86,0,lose4,NULL,chris_item=winFiller_role=UDtarget,no
1480886148,5147a6f6b82e2e021e4ce3368d729868,Form,86,0,lose4,NULL,_REACTION_TIME_,10622
1480886148,5147a6f6b82e2e021e4ce3368d729868,Form,78,0,win1,NULL,amy_item=winFiller_role=truecontrolSE,yes
1480886148,5147a6f6b82e2e021e4ce3368d729868,Form,78,0,win1,NULL,bob_item=winFiller_role=falsecontrol,no
1480886148,5147a6f6b82e2e021e4ce3368d729868,Form,78,0,win1,NULL,chris_item=winFiller_role=UDtarget,no
1480886148,5147a6f6b82e2e021e4ce3368d729868,Form,78,0,win1,NULL,_REACTION_TIME_,10099
1480886148,5147a6f6b82e2e021e4ce3368d729868,Form,16,0,od9,NULL,amy_item=OD_role=truecontrolSE,yes
1480886148,5147a6f6b82e2e021e4ce3368d729868,Form,16,0,od9,NULL,bob_item=OD_role=falsecontrol,no
1480886148,5147a6f6b82e2e021e4ce3368d729868,Form,16,0,od9,NULL,chris_item=OD_role=target,no
1480886148,5147a6f6b82e2e021e4ce3368d729868,Form,16,0,od9,NULL,_REACTION_TIME_,4334
1480886148,5147a6f6b82e2e021e4ce3368d729868,Form,12,0,od5,NULL,amy_item=OD_role=falsecontrol,no
1480886148,5147a6f6b82e2e021e4ce3368d729868,Form,12,0,od5,NULL,bob_item=OD_role=truecontrolSE,yes
1480886148,5147a6f6b82e2e021e4ce3368d729868,Form,12,0,od5,NULL,chris_item=OD_role=target,no
1480886148,5147a6f6b82e2e021e4ce3368d729868,Form,12,0,od5,NULL,_REACTION_TIME_,15478
1480886148,5147a6f6b82e2e021e4ce3368d729868,Form,33,0,ud6,NULL,amy_item=UD_role=truecontrolSE,yes
1480886148,5147a6f6b82e2e021e4ce3368d729868,Form,33,0,ud6,NULL,bob_item=UD_role=falsecontrol,no
1480886148,5147a6f6b82e2e021e4ce3368d729868,Form,33,0,ud6,NULL,chris_item=UD_role=target,no
1480886148,5147a6f6b82e2e021e4ce3368d729868,Form,33,0,ud6,NULL,_REACTION_TIME_,4492
#
# Results on Monday December 05 2016 08:12:22 UTC.
# USER AGENT: Mozilla/5.0 (X11; Linux x86_64) AppleWebKit/537.36 (KHTML, like Gecko) Chrome/50.0.2661.102 Safari/537.36
# Design number was non-random = 9
#
# Columns below this comment are as follows:
# 1. Time results were received.
# 2. MD5 hash of participant's IP address.
# 3. Controller name.
# 4. Item number.
# 5. Element number.
# 6. Type.
# 7. Group.
# 8. Field name.
# 9. Field value.
1480925543,5147a6f6b82e2e021e4ce3368d729868,Form,1,0,instructions,NULL,,no
1480925543,5147a6f6b82e2e021e4ce3368d729868,Form,1,0,instructions,NULL,,no
1480925543,5147a6f6b82e2e021e4ce3368d729868,Form,1,0,instructions,NULL,,no
1480925543,5147a6f6b82e2e021e4ce3368d729868,Form,1,0,instructions,NULL,,no
1480925543,5147a6f6b82e2e021e4ce3368d729868,Form,1,0,instructions,NULL,,no
1480925543,5147a6f6b82e2e021e4ce3368d729868,Form,1,0,instructions,NULL,,no
1480925543,5147a6f6b82e2e021e4ce3368d729868,Form,1,0,instructions,NULL,,no
1480925543,5147a6f6b82e2e021e4ce3368d729868,Form,1,0,instructions,NULL,,no
1480925543,5147a6f6b82e2e021e4ce3368d729868,Form,1,0,instructions,NULL,,no
1480925543,5147a6f6b82e2e021e4ce3368d729868,Form,1,0,instructions,NULL,,no
1480925543,5147a6f6b82e2e021e4ce3368d729868,Form,1,0,instructions,NULL,,no
1480925543,5147a6f6b82e2e021e4ce3368d729868,Form,1,0,instructions,NULL,,no
1480925543,5147a6f6b82e2e021e4ce3368d729868,Form,1,0,instructions,NULL,_REACTION_TIME_,14209
1480925543,5147a6f6b82e2e021e4ce3368d729868,Form,2,0,training1,NULL,,no
1480925543,5147a6f6b82e2e021e4ce3368d729868,Form,2,0,training1,NULL,,no
1480925543,5147a6f6b82e2e021e4ce3368d729868,Form,2,0,training1,NULL,,no
1480925543,5147a6f6b82e2e021e4ce3368d729868,Form,2,0,training1,NULL,_REACTION_TIME_,1345
1480925543,5147a6f6b82e2e021e4ce3368d729868,Form,3,0,training2,NULL,,no
1480925543,5147a6f6b82e2e021e4ce3368d729868,Form,3,0,training2,NULL,,no
1480925543,5147a6f6b82e2e021e4ce3368d729868,Form,3,0,training2,NULL,,no
1480925543,5147a6f6b82e2e021e4ce3368d729868,Form,3,0,training2,NULL,_REACTION_TIME_,600
1480925543,5147a6f6b82e2e021e4ce3368d729868,Form,4,0,training3,NULL,,no
1480925543,5147a6f6b82e2e021e4ce3368d729868,Form,4,0,training3,NULL,,no
1480925543,5147a6f6b82e2e021e4ce3368d729868,Form,4,0,training3,NULL,,no
1480925543,5147a6f6b82e2e021e4ce3368d729868,Form,4,0,training3,NULL,_REACTION_TIME_,341
1480925543,5147a6f6b82e2e021e4ce3368d729868,Form,5,0,training4,NULL,,no
1480925543,5147a6f6b82e2e021e4ce3368d729868,Form,5,0,training4,NULL,,no
1480925543,5147a6f6b82e2e021e4ce3368d729868,Form,5,0,training4,NULL,,no
1480925543,5147a6f6b82e2e021e4ce3368d729868,Form,5,0,training4,NULL,_REACTION_TIME_,669
1480925543,5147a6f6b82e2e021e4ce3368d729868,Form,6,0,training5,NULL,,no
1480925543,5147a6f6b82e2e021e4ce3368d729868,Form,6,0,training5,NULL,,no
1480925543,5147a6f6b82e2e021e4ce3368d729868,Form,6,0,training5,NULL,,no
1480925543,5147a6f6b82e2e021e4ce3368d729868,Form,6,0,training5,NULL,_REACTION_TIME_,1959
1480925543,5147a6f6b82e2e021e4ce3368d729868,Form,41,0,ua4,NULL,amy_item=UA_role=falsecontrol,no
1480925543,5147a6f6b82e2e021e4ce3368d729868,Form,41,0,ua4,NULL,bob_item=UA_role=truecontrolSE,yes
1480925543,5147a6f6b82e2e021e4ce3368d729868,Form,41,0,ua4,NULL,chris_item=UA_role=target,no
1480925543,5147a6f6b82e2e021e4ce3368d729868,Form,41,0,ua4,NULL,_REACTION_TIME_,6399
1480925543,5147a6f6b82e2e021e4ce3368d729868,Form,19,0,oa2,NULL,amy_item=OA_role=target,no
1480925543,5147a6f6b82e2e021e4ce3368d729868,Form,19,0,oa2,NULL,bob_item=OA_role=falsecontrol,no
1480925543,5147a6f6b82e2e021e4ce3368d729868,Form,19,0,oa2,NULL,chris_item=OA_role=truecontrolSE,yes
1480925543,5147a6f6b82e2e021e4ce3368d729868,Form,19,0,oa2,NULL,_REACTION_TIME_,6177
1480925543,5147a6f6b82e2e021e4ce3368d729868,Form,38,0,ua1,NULL,amy_item=UA_role=target,no
1480925543,5147a6f6b82e2e021e4ce3368d729868,Form,38,0,ua1,NULL,bob_item=UA_role=falsecontrol,no
1480925543,5147a6f6b82e2e021e4ce3368d729868,Form,38,0,ua1,NULL,chris_item=UA_role=truecontrolSE,yes
1480925543,5147a6f6b82e2e021e4ce3368d729868,Form,38,0,ua1,NULL,_REACTION_TIME_,5290
1480925543,5147a6f6b82e2e021e4ce3368d729868,Form,35,0,ud8,NULL,amy_item=UD_role=truecontrolSE,yes
1480925543,5147a6f6b82e2e021e4ce3368d729868,Form,35,0,ud8,NULL,bob_item=UD_role=target,yes
1480925543,5147a6f6b82e2e021e4ce3368d729868,Form,35,0,ud8,NULL,chris_item=UD_role=falsecontrol,no
1480925543,5147a6f6b82e2e021e4ce3368d729868,Form,35,0,ud8,NULL,_REACTION_TIME_,5820
1480925543,5147a6f6b82e2e021e4ce3368d729868,Form,45,0,ua8,NULL,amy_item=UA_role=falsecontrol,no
1480925543,5147a6f6b82e2e021e4ce3368d729868,Form,45,0,ua8,NULL,bob_item=UA_role=target,no
1480925543,5147a6f6b82e2e021e4ce3368d729868,Form,45,0,ua8,NULL,chris_item=UA_role=truecontrolSE,yes
1480925543,5147a6f6b82e2e021e4ce3368d729868,Form,45,0,ua8,NULL,_REACTION_TIME_,4853
1480925543,5147a6f6b82e2e021e4ce3368d729868,Form,51,0,ppf4,NULL,amy_item=TrueTrueFalseFiller_role=false,no
1480925543,5147a6f6b82e2e021e4ce3368d729868,Form,51,0,ppf4,NULL,bob_item=TrueTrueFalseFiller_role=trueSE,yes
1480925543,5147a6f6b82e2e021e4ce3368d729868,Form,51,0,ppf4,NULL,chris_item=TrueTrueFalseFiller_role=truePerfect,yes
1480925543,5147a6f6b82e2e021e4ce3368d729868,Form,51,0,ppf4,NULL,_REACTION_TIME_,4431
1480925543,5147a6f6b82e2e021e4ce3368d729868,Form,53,0,ppf6,NULL,amy_item=TrueTrueFalseFiller_role=false,no
1480925543,5147a6f6b82e2e021e4ce3368d729868,Form,53,0,ppf6,NULL,bob_item=TrueTrueFalseFiller_role=truePerfect,yes
1480925543,5147a6f6b82e2e021e4ce3368d729868,Form,53,0,ppf6,NULL,chris_item=TrueTrueFalseFiller_role=trueSE,yes
1480925543,5147a6f6b82e2e021e4ce3368d729868,Form,53,0,ppf6,NULL,_REACTION_TIME_,6448
1480925543,5147a6f6b82e2e021e4ce3368d729868,Form,61,0,ppf14,NULL,amy_item=TrueTrueFalseFiller_role=false,no
1480925543,5147a6f6b82e2e021e4ce3368d729868,Form,61,0,ppf14,NULL,bob_item=TrueTrueFalseFiller_role=truePerfect,yes
1480925543,5147a6f6b82e2e021e4ce3368d729868,Form,61,0,ppf14,NULL,chris_item=TrueTrueFalseFiller_role=trueSE,yes
1480925543,5147a6f6b82e2e021e4ce3368d729868,Form,61,0,ppf14,NULL,_REACTION_TIME_,5146
1480925543,5147a6f6b82e2e021e4ce3368d729868,Form,69,0,sym2,NULL,amy_item=whichSymbolFiller_role=truecontrolSE,yes
1480925543,5147a6f6b82e2e021e4ce3368d729868,Form,69,0,sym2,NULL,bob_item=whichSymbolFiller_role=falsecontrol,no
1480925543,5147a6f6b82e2e021e4ce3368d729868,Form,69,0,sym2,NULL,chris_item=whichSymbolFiller_role=UDtargetTrue,yes
1480925543,5147a6f6b82e2e021e4ce3368d729868,Form,69,0,sym2,NULL,_REACTION_TIME_,5815
1480925543,5147a6f6b82e2e021e4ce3368d729868,Form,62,0,ppf15,NULL,amy_item=TrueTrueFalseFiller_role=truePerfect,yes
1480925543,5147a6f6b82e2e021e4ce3368d729868,Form,62,0,ppf15,NULL,bob_item=TrueTrueFalseFiller_role=trueSE,yes
1480925543,5147a6f6b82e2e021e4ce3368d729868,Form,62,0,ppf15,NULL,chris_item=TrueTrueFalseFiller_role=false,no
1480925543,5147a6f6b82e2e021e4ce3368d729868,Form,62,0,ppf15,NULL,_REACTION_TIME_,6612
1480925543,5147a6f6b82e2e021e4ce3368d729868,Form,63,0,ppf16,NULL,amy_item=TrueTrueFalseFiller_role=trueSE,yes
1480925543,5147a6f6b82e2e021e4ce3368d729868,Form,63,0,ppf16,NULL,bob_item=TrueTrueFalseFiller_role=false,no
1480925543,5147a6f6b82e2e021e4ce3368d729868,Form,63,0,ppf16,NULL,chris_item=TrueTrueFalseFiller_role=truePerfect,yes
1480925543,5147a6f6b82e2e021e4ce3368d729868,Form,63,0,ppf16,NULL,_REACTION_TIME_,7478
1480925543,5147a6f6b82e2e021e4ce3368d729868,Form,67,0,sym0,NULL,amy_item=whichSymbolFiller_role=UDtargetTrue,yes
1480925543,5147a6f6b82e2e021e4ce3368d729868,Form,67,0,sym0,NULL,bob_item=whichSymbolFiller_role=falsecontrol,no
1480925543,5147a6f6b82e2e021e4ce3368d729868,Form,67,0,sym0,NULL,chris_item=whichSymbolFiller_role=truecontrolSE,yes
1480925543,5147a6f6b82e2e021e4ce3368d729868,Form,67,0,sym0,NULL,_REACTION_TIME_,6592
1480925543,5147a6f6b82e2e021e4ce3368d729868,Form,64,0,ppf17,NULL,amy_item=TrueTrueFalseFiller_role=trueSE,yes
1480925543,5147a6f6b82e2e021e4ce3368d729868,Form,64,0,ppf17,NULL,bob_item=TrueTrueFalseFiller_role=false,no
1480925543,5147a6f6b82e2e021e4ce3368d729868,Form,64,0,ppf17,NULL,chris_item=TrueTrueFalseFiller_role=truePerfect,yes
1480925543,5147a6f6b82e2e021e4ce3368d729868,Form,64,0,ppf17,NULL,_REACTION_TIME_,3928
1480925543,5147a6f6b82e2e021e4ce3368d729868,Form,80,0,win3,NULL,amy_item=winFiller_role=UDtarget,no
1480925543,5147a6f6b82e2e021e4ce3368d729868,Form,80,0,win3,NULL,bob_item=winFiller_role=falsecontrol,no
1480925543,5147a6f6b82e2e021e4ce3368d729868,Form,80,0,win3,NULL,chris_item=winFiller_role=truecontrolSE,yes
1480925543,5147a6f6b82e2e021e4ce3368d729868,Form,80,0,win3,NULL,_REACTION_TIME_,14676
1480925543,5147a6f6b82e2e021e4ce3368d729868,Form,39,0,ua2,NULL,amy_item=UA_role=falsecontrol,no
1480925543,5147a6f6b82e2e021e4ce3368d729868,Form,39,0,ua2,NULL,bob_item=UA_role=target,no
1480925543,5147a6f6b82e2e021e4ce3368d729868,Form,39,0,ua2,NULL,chris_item=UA_role=truecontrolSE,yes
1480925543,5147a6f6b82e2e021e4ce3368d729868,Form,39,0,ua2,NULL,_REACTION_TIME_,8119
1480925543,5147a6f6b82e2e021e4ce3368d729868,Form,10,0,od3,NULL,amy_item=OD_role=target,no
1480925543,5147a6f6b82e2e021e4ce3368d729868,Form,10,0,od3,NULL,bob_item=OD_role=falsecontrol,no
1480925543,5147a6f6b82e2e021e4ce3368d729868,Form,10,0,od3,NULL,chris_item=OD_role=truecontrolSE,yes
1480925543,5147a6f6b82e2e021e4ce3368d729868,Form,10,0,od3,NULL,_REACTION_TIME_,4015
1480925543,5147a6f6b82e2e021e4ce3368d729868,Form,26,0,oa9,NULL,amy_item=OA_role=truecontrolSE,yes
1480925543,5147a6f6b82e2e021e4ce3368d729868,Form,26,0,oa9,NULL,bob_item=OA_role=falsecontrol,no
1480925543,5147a6f6b82e2e021e4ce3368d729868,Form,26,0,oa9,NULL,chris_item=OA_role=target,no
1480925543,5147a6f6b82e2e021e4ce3368d729868,Form,26,0,oa9,NULL,_REACTION_TIME_,8904
1480925543,5147a6f6b82e2e021e4ce3368d729868,Form,86,0,lose4,NULL,amy_item=winFiller_role=truecontrol,yes
1480925543,5147a6f6b82e2e021e4ce3368d729868,Form,86,0,lose4,NULL,bob_item=winFiller_role=falsecontrolSE,no
1480925543,5147a6f6b82e2e021e4ce3368d729868,Form,86,0,lose4,NULL,chris_item=winFiller_role=UDtarget,no
